date,time,subject,blocknum,blockcode,trialnum,trialcode,response,latency,correct,stimulus1,vpcode_hd1
3/13/24,17:16:43,5,1,SM2Practice,1,achtung,0,1700,0,Attention!,0
3/13/24,17:16:43,5,1,SM2Practice,2,SM2_P_T1,0,2800,0,Photo,0
3/13/24,17:16:43,5,1,SM2Practice,3,SM2_P_T2,0,2800,0,Sign,0
3/13/24,17:16:43,5,1,SM2Practice,4,SM2_P_T3,0,2800,0,Box,0
3/13/24,17:16:43,5,2,SM2Practice_Abr,1,SM2_P_Abr1,Sign,6544,1,Floor,0
3/13/24,17:16:43,5,2,SM2Practice_Abr,2,SM2_P_Abr2,Board,3013,1,Box,0
3/13/24,17:16:43,5,2,SM2Practice_Abr,3,SM2_P_Abr3,Pen,2312,1,Photo,0
3/13/24,17:16:43,5,3,SM2Test,1,achtung,0,1700,0,Attention!,0
3/13/24,17:16:43,5,3,SM2Test,2,SM2_T1,0,2800,0,Pepper,0
3/13/24,17:16:43,5,3,SM2Test,3,SM2_T2,0,2800,0,Glove,0
3/13/24,17:16:43,5,3,SM2Test,4,SM2_T3,0,2800,0,Straw,0
3/13/24,17:16:43,5,3,SM2Test,5,SM2_T4,0,2800,0,Mountains,0
3/13/24,17:16:43,5,3,SM2Test,6,SM2_T5,0,2800,0,Pencil,0
3/13/24,17:16:43,5,3,SM2Test,7,SM2_T6,0,2800,0,Wing,0
3/13/24,17:16:43,5,3,SM2Test,8,SM2_T7,0,2800,0,Cabbage,0
3/13/24,17:16:43,5,3,SM2Test,9,SM2_T8,0,2800,0,Piano,0
3/13/24,17:16:43,5,3,SM2Test,10,SM2_T9,0,2800,0,Brain,0
3/13/24,17:16:43,5,3,SM2Test,11,SM2_T10,0,2800,0,Horse,0
3/13/24,17:16:43,5,3,SM2Test,12,SM2_T11,0,2800,0,Shed,0
3/13/24,17:16:43,5,3,SM2Test,13,SM2_T12,0,2800,0,Pumpkin,0
3/13/24,17:16:43,5,3,SM2Test,14,SM2_T13,0,2800,0,Cash,0
3/13/24,17:16:43,5,3,SM2Test,15,SM2_T14,0,2800,0,Cello,0
3/13/24,17:16:43,5,3,SM2Test,16,SM2_T15,0,2800,0,Glass,0
3/13/24,17:16:43,5,3,SM2Test,17,SM2_T16,0,2800,0,Flower,0
3/13/24,17:16:43,5,3,SM2Test,18,SM2_T17,0,2800,0,Coast,0
3/13/24,17:16:43,5,3,SM2Test,19,SM2_T18,0,2800,0,Cream,0
3/13/24,17:16:43,5,3,SM2Test,20,SM2_T19,0,2800,0,Poker,0
3/13/24,17:16:43,5,3,SM2Test,21,SM2_T20,0,2800,0,Duck,0
3/13/24,17:16:43,5,4,Pract_erik2,1,erikICre,205,1243,1,+,0
3/13/24,17:16:43,5,4,Pract_erik2,2,erikCOli,203,654,1,+,0
3/13/24,17:16:43,5,4,Pract_erik2,3,erikICli,203,913,1,+,0
3/13/24,17:16:43,5,4,Pract_erik2,4,erikICre,205,577,1,+,0
3/13/24,17:16:43,5,4,Pract_erik2,5,erikCOre,205,624,1,+,0
3/13/24,17:16:43,5,4,Pract_erik2,6,erikCOli,203,413,1,+,0
3/13/24,17:16:43,5,4,Pract_erik2,7,erikICli,203,506,1,+,0
3/13/24,17:16:43,5,4,Pract_erik2,8,erikICli,203,444,1,+,0
3/13/24,17:16:43,5,4,Pract_erik2,9,erikICre,205,513,1,+,0
3/13/24,17:16:43,5,4,Pract_erik2,10,erikCOre,205,450,1,+,0
3/13/24,17:16:43,5,4,Pract_erik2,11,erikCOre,205,415,1,+,0
3/13/24,17:16:43,5,4,Pract_erik2,12,erikCOli,203,429,1,+,0
3/13/24,17:16:43,5,5,Test_erik2,1,erikCOre,205,1283,1,+,0
3/13/24,17:16:43,5,5,Test_erik2,2,erikICli,203,565,1,+,0
3/13/24,17:16:43,5,5,Test_erik2,3,erikICre,205,500,1,+,0
3/13/24,17:16:43,5,5,Test_erik2,4,erikICli,203,486,1,+,0
3/13/24,17:16:43,5,5,Test_erik2,5,erikICli,203,545,1,+,0
3/13/24,17:16:43,5,5,Test_erik2,6,erikICli,203,489,1,+,0
3/13/24,17:16:43,5,5,Test_erik2,7,erikCOli,203,395,1,+,0
3/13/24,17:16:43,5,5,Test_erik2,8,erikCOre,205,442,1,+,0
3/13/24,17:16:43,5,5,Test_erik2,9,erikCOli,203,382,1,+,0
3/13/24,17:16:43,5,5,Test_erik2,10,erikICli,203,486,1,+,0
3/13/24,17:16:43,5,5,Test_erik2,11,erikICre,205,465,1,+,0
3/13/24,17:16:43,5,5,Test_erik2,12,erikICli,203,484,1,+,0
3/13/24,17:16:43,5,5,Test_erik2,13,erikCOre,205,439,1,+,0
3/13/24,17:16:43,5,5,Test_erik2,14,erikICre,205,540,1,+,0
3/13/24,17:16:43,5,5,Test_erik2,15,erikCOre,205,411,1,+,0
3/13/24,17:16:43,5,5,Test_erik2,16,erikCOre,205,489,1,+,0
3/13/24,17:16:43,5,5,Test_erik2,17,erikICre,205,523,1,+,0
3/13/24,17:16:43,5,5,Test_erik2,18,erikCOli,203,444,1,+,0
3/13/24,17:16:43,5,5,Test_erik2,19,erikCOre,205,425,1,+,0
3/13/24,17:16:43,5,5,Test_erik2,20,erikICre,205,470,1,+,0
3/13/24,17:16:43,5,5,Test_erik2,21,erikICre,205,473,1,+,0
3/13/24,17:16:43,5,5,Test_erik2,22,erikCOli,203,476,1,+,0
3/13/24,17:16:43,5,5,Test_erik2,23,erikCOre,205,495,1,+,0
3/13/24,17:16:43,5,5,Test_erik2,24,erikICli,203,466,1,+,0
3/13/24,17:16:43,5,5,Test_erik2,25,erikICre,205,468,1,+,0
3/13/24,17:16:43,5,5,Test_erik2,26,erikCOre,205,480,1,+,0
3/13/24,17:16:43,5,5,Test_erik2,27,erikICre,205,531,1,+,0
3/13/24,17:16:43,5,5,Test_erik2,28,erikCOre,205,524,1,+,0
3/13/24,17:16:43,5,5,Test_erik2,29,erikCOre,205,525,1,+,0
3/13/24,17:16:43,5,5,Test_erik2,30,erikCOli,203,574,1,+,0
3/13/24,17:16:43,5,5,Test_erik2,31,erikCOre,205,565,1,+,0
3/13/24,17:16:43,5,5,Test_erik2,32,erikICli,203,532,1,+,0
3/13/24,17:16:43,5,5,Test_erik2,33,erikCOli,203,541,1,+,0
3/13/24,17:16:43,5,5,Test_erik2,34,erikICli,203,549,1,+,0
3/13/24,17:16:43,5,5,Test_erik2,35,erikCOli,203,613,1,+,0
3/13/24,17:16:43,5,5,Test_erik2,36,erikCOre,205,450,1,+,0
3/13/24,17:16:43,5,5,Test_erik2,37,erikCOre,205,487,1,+,0
3/13/24,17:16:43,5,5,Test_erik2,38,erikICli,203,497,1,+,0
3/13/24,17:16:43,5,5,Test_erik2,39,erikCOre,205,508,1,+,0
3/13/24,17:16:43,5,5,Test_erik2,40,erikICli,203,493,1,+,0
3/13/24,17:16:43,5,5,Test_erik2,41,erikCOli,203,544,1,+,0
3/13/24,17:16:43,5,5,Test_erik2,42,erikCOre,205,528,1,+,0
3/13/24,17:16:43,5,5,Test_erik2,43,erikCOre,205,513,1,+,0
3/13/24,17:16:43,5,5,Test_erik2,44,erikICli,203,537,1,+,0
3/13/24,17:16:43,5,5,Test_erik2,45,erikICli,203,538,1,+,0
3/13/24,17:16:43,5,5,Test_erik2,46,erikCOre,205,506,1,+,0
3/13/24,17:16:43,5,5,Test_erik2,47,erikCOre,205,532,1,+,0
3/13/24,17:16:43,5,5,Test_erik2,48,erikICli,203,557,1,+,0
3/13/24,17:16:43,5,5,Test_erik2,49,erikICli,203,540,1,+,0
3/13/24,17:16:43,5,5,Test_erik2,50,erikICli,203,548,1,+,0
3/13/24,17:16:43,5,5,Test_erik2,51,erikCOli,203,509,1,+,0
3/13/24,17:16:43,5,5,Test_erik2,52,erikCOre,205,606,1,+,0
3/13/24,17:16:43,5,5,Test_erik2,53,erikCOli,203,572,1,+,0
3/13/24,17:16:43,5,5,Test_erik2,54,erikICre,205,562,1,+,0
3/13/24,17:16:43,5,5,Test_erik2,55,erikICli,203,545,1,+,0
3/13/24,17:16:43,5,5,Test_erik2,56,erikICre,205,569,1,+,0
3/13/24,17:16:43,5,5,Test_erik2,57,erikCOli,203,537,1,+,0
3/13/24,17:16:43,5,5,Test_erik2,58,erikICre,205,609,1,+,0
3/13/24,17:16:43,5,5,Test_erik2,59,erikCOre,205,567,1,+,0
3/13/24,17:16:43,5,5,Test_erik2,60,erikCOli,203,518,1,+,0
3/13/24,17:16:43,5,5,Test_erik2,61,erikICre,205,568,1,+,0
3/13/24,17:16:43,5,5,Test_erik2,62,erikICre,205,600,1,+,0
3/13/24,17:16:43,5,5,Test_erik2,63,erikICre,205,565,1,+,0
3/13/24,17:16:43,5,5,Test_erik2,64,erikICre,205,548,1,+,0
3/13/24,17:16:43,5,5,Test_erik2,65,erikCOre,205,508,1,+,0
3/13/24,17:16:43,5,5,Test_erik2,66,erikICre,205,550,1,+,0
3/13/24,17:16:43,5,5,Test_erik2,67,erikCOli,203,558,1,+,0
3/13/24,17:16:43,5,5,Test_erik2,68,erikICli,203,542,1,+,0
3/13/24,17:16:43,5,5,Test_erik2,69,erikCOli,203,550,1,+,0
3/13/24,17:16:43,5,5,Test_erik2,70,erikICre,205,558,1,+,0
3/13/24,17:16:43,5,5,Test_erik2,71,erikCOli,203,566,1,+,0
3/13/24,17:16:43,5,5,Test_erik2,72,erikICli,203,581,1,+,0
3/13/24,17:16:43,5,5,Test_erik2,73,erikCOre,205,547,1,+,0
3/13/24,17:16:43,5,5,Test_erik2,74,erikCOre,205,676,1,+,0
3/13/24,17:16:43,5,5,Test_erik2,75,erikCOre,205,814,1,+,0
3/13/24,17:16:43,5,5,Test_erik2,76,erikCOre,205,539,1,+,0
3/13/24,17:16:43,5,5,Test_erik2,77,erikICli,203,532,1,+,0
3/13/24,17:16:43,5,5,Test_erik2,78,erikICre,205,829,1,+,0
3/13/24,17:16:43,5,5,Test_erik2,79,erikICre,205,489,1,+,0
3/13/24,17:16:43,5,5,Test_erik2,80,erikICli,203,515,1,+,0
3/13/24,17:16:43,5,6,SM2Test_Abr,1,SM2_Abr1,Body,2851,1,Cash,0
3/13/24,17:16:43,5,6,SM2Test_Abr,2,SM2_Abr2,Spinach,4353,1,Cello,0
3/13/24,17:16:43,5,6,SM2Test_Abr,3,SM2_Abr3,Duck,2040,1,Chip,0
3/13/24,17:16:43,5,6,SM2Test_Abr,4,SM2_Abr4,Bamboo,2927,1,Glass,0
3/13/24,17:16:43,5,6,SM2Test_Abr,5,SM2_Abr5,Radio,2778,1,Flower,0
3/13/24,17:16:43,5,6,SM2Test_Abr,6,SM2_Abr6,Pencil,3449,1,Tuna,0
3/13/24,17:16:43,5,6,SM2Test_Abr,7,SM2_Abr7,Shed,10293,1,Armband,0
3/13/24,17:16:43,5,6,SM2Test_Abr,8,SM2_Abr8,Cup,4994,1,Horse,0
3/13/24,17:16:43,5,6,SM2Test_Abr,9,SM2_Abr9,Kitchen,2768,1,Cabbage,0
3/13/24,17:16:43,5,6,SM2Test_Abr,10,SM2_Abr10,Canvas,3838,1,Wing,0
3/13/24,17:16:43,5,6,SM2Test_Abr,11,SM2_Abr11,Coast,2299,1,Diner,0
3/13/24,17:16:43,5,6,SM2Test_Abr,12,SM2_Abr12,Palace,3115,1,Brain,0
3/13/24,17:16:43,5,6,SM2Test_Abr,13,SM2_Abr13,Poker,2451,1,Stream,0
3/13/24,17:16:43,5,6,SM2Test_Abr,14,SM2_Abr14,Mountains,5433,1,Stage,0
3/13/24,17:16:43,5,6,SM2Test_Abr,15,SM2_Abr15,Rhino,3081,1,Pumpkin,0
3/13/24,17:16:43,5,6,SM2Test_Abr,16,SM2_Abr16,Pepper,5856,1,Airplane,0
3/13/24,17:16:43,5,6,SM2Test_Abr,17,SM2_Abr17,Glove,2869,1,Goldfish,0
3/13/24,17:16:43,5,6,SM2Test_Abr,18,SM2_Abr18,Straw,17073,0,River,0
3/13/24,17:16:43,5,6,SM2Test_Abr,19,SM2_Abr19,Hut,4977,1,Piano,0
3/13/24,17:16:43,5,6,SM2Test_Abr,20,SM2_Abr20,Cream,8821,1,Garden,0
3/14/24,17:06:08,6,1,SM2Practice,1,achtung,0,1700,0,Attention!,0
3/14/24,17:06:08,6,1,SM2Practice,2,SM2_P_T1,0,2800,0,Photo,0
3/14/24,17:06:08,6,1,SM2Practice,3,SM2_P_T2,0,2800,0,Sign,0
3/14/24,17:06:08,6,1,SM2Practice,4,SM2_P_T3,0,2800,0,Box,0
3/14/24,17:06:08,6,2,SM2Practice_Abr,1,SM2_P_Abr1,Pen,3912,0,Floor,0
3/14/24,17:06:08,6,2,SM2Practice_Abr,2,SM2_P_Abr2,Floor,4300,0,Box,0
3/14/24,17:06:08,6,2,SM2Practice_Abr,3,SM2_P_Abr3,box,4328,0,Photo,0
3/14/24,17:06:08,6,3,SM2Test,1,achtung,0,1700,0,Attention!,0
3/14/24,17:06:08,6,3,SM2Test,2,SM2_T1,0,2800,0,Pepper,0
3/14/24,17:06:08,6,3,SM2Test,3,SM2_T2,0,2800,0,Glove,0
3/14/24,17:06:08,6,3,SM2Test,4,SM2_T3,0,2800,0,Straw,0
3/14/24,17:06:08,6,3,SM2Test,5,SM2_T4,0,2800,0,Mountains,0
3/14/24,17:06:08,6,3,SM2Test,6,SM2_T5,0,2800,0,Pencil,0
3/14/24,17:06:08,6,3,SM2Test,7,SM2_T6,0,2800,0,Wing,0
3/14/24,17:06:08,6,3,SM2Test,8,SM2_T7,0,2800,0,Cabbage,0
3/14/24,17:06:08,6,3,SM2Test,9,SM2_T8,0,2800,0,Piano,0
3/14/24,17:06:08,6,3,SM2Test,10,SM2_T9,0,2800,0,Brain,0
3/14/24,17:06:08,6,3,SM2Test,11,SM2_T10,0,2800,0,Horse,0
3/14/24,17:06:08,6,3,SM2Test,12,SM2_T11,0,2800,0,Shed,0
3/14/24,17:06:08,6,3,SM2Test,13,SM2_T12,0,2800,0,Pumpkin,0
3/14/24,17:06:08,6,3,SM2Test,14,SM2_T13,0,2800,0,Cash,0
3/14/24,17:06:08,6,3,SM2Test,15,SM2_T14,0,2800,0,Cello,0
3/14/24,17:06:08,6,3,SM2Test,16,SM2_T15,0,2800,0,Glass,0
3/14/24,17:06:08,6,3,SM2Test,17,SM2_T16,0,2800,0,Flower,0
3/14/24,17:06:08,6,3,SM2Test,18,SM2_T17,0,2800,0,Coast,0
3/14/24,17:06:08,6,3,SM2Test,19,SM2_T18,0,2800,0,Cream,0
3/14/24,17:06:08,6,3,SM2Test,20,SM2_T19,0,2800,0,Poker,0
3/14/24,17:06:08,6,3,SM2Test,21,SM2_T20,0,2800,0,Duck,0
3/14/24,17:06:08,6,4,Pract_erik2,1,erikICli,205,3266,0,+,0
3/14/24,17:06:08,6,4,Pract_erik2,2,erikICre,203,1960,0,+,0
3/14/24,17:06:08,6,4,Pract_erik2,3,erikCOre,205,756,1,+,0
3/14/24,17:06:08,6,4,Pract_erik2,4,erikCOli,203,683,1,+,0
3/14/24,17:06:08,6,4,Pract_erik2,5,erikICre,205,1110,1,+,0
3/14/24,17:06:08,6,4,Pract_erik2,6,erikCOre,205,790,1,+,0
3/14/24,17:06:08,6,4,Pract_erik2,7,erikCOli,203,636,1,+,0
3/14/24,17:06:08,6,4,Pract_erik2,8,erikICre,205,761,1,+,0
3/14/24,17:06:08,6,4,Pract_erik2,9,erikICli,205,695,0,+,0
3/14/24,17:06:08,6,4,Pract_erik2,10,erikCOre,205,545,1,+,0
3/14/24,17:06:08,6,4,Pract_erik2,11,erikCOli,203,409,1,+,0
3/14/24,17:06:08,6,4,Pract_erik2,12,erikICli,203,631,1,+,0
3/14/24,17:06:08,6,5,Test_erik2,1,erikCOre,205,441,1,+,0
3/14/24,17:06:08,6,5,Test_erik2,2,erikICli,203,646,1,+,0
3/14/24,17:06:08,6,5,Test_erik2,3,erikICre,203,634,0,+,0
3/14/24,17:06:08,6,5,Test_erik2,4,erikICli,205,455,0,+,0
3/14/24,17:06:08,6,5,Test_erik2,5,erikICli,205,913,0,+,0
3/14/24,17:06:08,6,5,Test_erik2,6,erikICli,203,690,1,+,0
3/14/24,17:06:08,6,5,Test_erik2,7,erikCOli,203,892,1,+,0
3/14/24,17:06:08,6,5,Test_erik2,8,erikCOre,205,446,1,+,0
3/14/24,17:06:08,6,5,Test_erik2,9,erikCOli,203,434,1,+,0
3/14/24,17:06:08,6,5,Test_erik2,10,erikICli,203,983,1,+,0
3/14/24,17:06:08,6,5,Test_erik2,11,erikICre,203,669,0,+,0
3/14/24,17:06:08,6,5,Test_erik2,12,erikICli,203,569,1,+,0
3/14/24,17:06:08,6,5,Test_erik2,13,erikCOre,203,1040,0,+,0
3/14/24,17:06:08,6,5,Test_erik2,14,erikICre,203,762,0,+,0
3/14/24,17:06:08,6,5,Test_erik2,15,erikCOre,205,434,1,+,0
3/14/24,17:06:08,6,5,Test_erik2,16,erikCOre,205,511,1,+,0
3/14/24,17:06:08,6,5,Test_erik2,17,erikICre,205,176,1,+,0
3/14/24,17:06:08,6,5,Test_erik2,18,erikCOli,203,440,1,+,0
3/14/24,17:06:08,6,5,Test_erik2,19,erikCOre,205,365,1,+,0
3/14/24,17:06:08,6,5,Test_erik2,20,erikICre,205,5653,1,+,0
3/14/24,17:06:08,6,5,Test_erik2,21,erikICre,205,670,1,+,0
3/14/24,17:06:08,6,5,Test_erik2,22,erikCOli,203,457,1,+,0
3/14/24,17:06:08,6,5,Test_erik2,23,erikCOre,205,340,1,+,0
3/14/24,17:06:08,6,5,Test_erik2,24,erikICli,205,533,0,+,0
3/14/24,17:06:08,6,5,Test_erik2,25,erikICre,203,526,0,+,0
3/14/24,17:06:08,6,5,Test_erik2,26,erikCOre,205,447,1,+,0
3/14/24,17:06:08,6,5,Test_erik2,27,erikICre,203,1451,0,+,0
3/14/24,17:06:08,6,5,Test_erik2,28,erikCOre,205,709,1,+,0
3/14/24,17:06:08,6,5,Test_erik2,29,erikCOre,205,407,1,+,0
3/14/24,17:06:08,6,5,Test_erik2,30,erikCOli,203,405,1,+,0
3/14/24,17:06:08,6,5,Test_erik2,31,erikCOre,205,426,1,+,0
3/14/24,17:06:08,6,5,Test_erik2,32,erikICli,205,1159,0,+,0
3/14/24,17:06:08,6,5,Test_erik2,33,erikCOli,203,461,1,+,0
3/14/24,17:06:08,6,5,Test_erik2,34,erikICli,203,513,1,+,0
3/14/24,17:06:08,6,5,Test_erik2,35,erikCOli,203,410,1,+,0
3/14/24,17:06:08,6,5,Test_erik2,36,erikCOre,205,448,1,+,0
3/14/24,17:06:08,6,5,Test_erik2,37,erikCOre,205,389,1,+,0
3/14/24,17:06:08,6,5,Test_erik2,38,erikICli,203,587,1,+,0
3/14/24,17:06:08,6,5,Test_erik2,39,erikCOre,205,281,1,+,0
3/14/24,17:06:08,6,5,Test_erik2,40,erikICli,203,509,1,+,0
3/14/24,17:06:08,6,5,Test_erik2,41,erikCOli,203,463,1,+,0
3/14/24,17:06:08,6,5,Test_erik2,42,erikCOre,205,393,1,+,0
3/14/24,17:06:08,6,5,Test_erik2,43,erikCOre,203,480,0,+,0
3/14/24,17:06:08,6,5,Test_erik2,44,erikICli,203,1011,1,+,0
3/14/24,17:06:08,6,5,Test_erik2,45,erikICli,203,495,1,+,0
3/14/24,17:06:08,6,5,Test_erik2,46,erikCOre,205,442,1,+,0
3/14/24,17:06:08,6,5,Test_erik2,47,erikCOre,205,566,1,+,0
3/14/24,17:06:08,6,5,Test_erik2,48,erikICli,203,534,1,+,0
3/14/24,17:06:08,6,5,Test_erik2,49,erikICli,203,559,1,+,0
3/14/24,17:06:08,6,5,Test_erik2,50,erikICli,203,406,1,+,0
3/14/24,17:06:08,6,5,Test_erik2,51,erikCOli,203,524,1,+,0
3/14/24,17:06:08,6,5,Test_erik2,52,erikCOre,205,692,1,+,0
3/14/24,17:06:08,6,5,Test_erik2,53,erikCOli,203,470,1,+,0
3/14/24,17:06:08,6,5,Test_erik2,54,erikICre,203,553,0,+,0
3/14/24,17:06:08,6,5,Test_erik2,55,erikICli,205,593,0,+,0
3/14/24,17:06:08,6,5,Test_erik2,56,erikICre,203,495,0,+,0
3/14/24,17:06:08,6,5,Test_erik2,57,erikCOli,203,617,1,+,0
3/14/24,17:06:08,6,5,Test_erik2,58,erikICre,205,767,1,+,0
3/14/24,17:06:08,6,5,Test_erik2,59,erikCOre,205,582,1,+,0
3/14/24,17:06:08,6,5,Test_erik2,60,erikCOli,203,861,1,+,0
3/14/24,17:06:08,6,5,Test_erik2,61,erikICre,205,744,1,+,0
3/14/24,17:06:08,6,5,Test_erik2,62,erikICre,205,582,1,+,0
3/14/24,17:06:08,6,5,Test_erik2,63,erikICre,205,493,1,+,0
3/14/24,17:06:08,6,5,Test_erik2,64,erikICre,205,616,1,+,0
3/14/24,17:06:08,6,5,Test_erik2,65,erikCOre,205,381,1,+,0
3/14/24,17:06:08,6,5,Test_erik2,66,erikICre,205,476,1,+,0
3/14/24,17:06:08,6,5,Test_erik2,67,erikCOli,203,567,1,+,0
3/14/24,17:06:08,6,5,Test_erik2,68,erikICli,203,511,1,+,0
3/14/24,17:06:08,6,5,Test_erik2,69,erikCOli,203,473,1,+,0
3/14/24,17:06:08,6,5,Test_erik2,70,erikICre,205,748,1,+,0
3/14/24,17:06:08,6,5,Test_erik2,71,erikCOli,203,531,1,+,0
3/14/24,17:06:08,6,5,Test_erik2,72,erikICli,203,811,1,+,0
3/14/24,17:06:08,6,5,Test_erik2,73,erikCOre,205,496,1,+,0
3/14/24,17:06:08,6,5,Test_erik2,74,erikCOre,205,395,1,+,0
3/14/24,17:06:08,6,5,Test_erik2,75,erikCOre,205,457,1,+,0
3/14/24,17:06:08,6,5,Test_erik2,76,erikCOre,205,381,1,+,0
3/14/24,17:06:08,6,5,Test_erik2,77,erikICli,203,516,1,+,0
3/14/24,17:06:08,6,5,Test_erik2,78,erikICre,203,542,0,+,0
3/14/24,17:06:08,6,5,Test_erik2,79,erikICre,205,902,1,+,0
3/14/24,17:06:08,6,5,Test_erik2,80,erikICli,203,552,1,+,0
3/14/24,17:06:08,6,6,SM2Test_Abr,1,SM2_Abr1,,4218,0,Cash,0
3/14/24,17:06:08,6,6,SM2Test_Abr,2,SM2_Abr2,,2574,0,Cello,0
3/14/24,17:06:08,6,6,SM2Test_Abr,3,SM2_Abr3,,1574,0,Chip,0
3/14/24,17:06:08,6,6,SM2Test_Abr,4,SM2_Abr4,,2145,0,Glass,0
3/14/24,17:06:08,6,6,SM2Test_Abr,5,SM2_Abr5,,1501,0,Flower,0
3/14/24,17:06:08,6,6,SM2Test_Abr,6,SM2_Abr6,,1748,0,Tuna,0
3/14/24,17:06:08,6,6,SM2Test_Abr,7,SM2_Abr7,,1037,0,Armband,0
3/14/24,17:06:08,6,6,SM2Test_Abr,8,SM2_Abr8,,2111,0,Horse,0
3/14/24,17:06:08,6,6,SM2Test_Abr,9,SM2_Abr9,,756,0,Cabbage,0
3/14/24,17:06:08,6,6,SM2Test_Abr,10,SM2_Abr10,,833,0,Wing,0
3/14/24,17:06:08,6,6,SM2Test_Abr,11,SM2_Abr11,town,5728,0,Diner,0
3/14/24,17:06:08,6,6,SM2Test_Abr,12,SM2_Abr12,,1761,0,Brain,0
3/14/24,17:06:08,6,6,SM2Test_Abr,13,SM2_Abr13,,2947,0,Stream,0
3/14/24,17:06:08,6,6,SM2Test_Abr,14,SM2_Abr14,,904,0,Stage,0
3/14/24,17:06:08,6,6,SM2Test_Abr,15,SM2_Abr15,,2438,0,Pumpkin,0
3/14/24,17:06:08,6,6,SM2Test_Abr,16,SM2_Abr16,pepper,4785,1,Airplane,0
3/14/24,17:06:08,6,6,SM2Test_Abr,17,SM2_Abr17,,1903,0,Goldfish,0
3/14/24,17:06:08,6,6,SM2Test_Abr,18,SM2_Abr18,,1181,0,River,0
3/14/24,17:06:08,6,6,SM2Test_Abr,19,SM2_Abr19,,713,0,Piano,0
3/14/24,17:06:08,6,6,SM2Test_Abr,20,SM2_Abr20,,1637,0,Garden,0
3/18/24,15:27:08,3,1,SM2Practice,1,achtung,0,1700,0,Attention!,0
3/18/24,15:27:08,3,1,SM2Practice,2,SM2_P_T1,0,2800,0,Photo,0
3/18/24,15:27:08,3,1,SM2Practice,3,SM2_P_T2,0,2800,0,Sign,0
3/18/24,15:27:08,3,1,SM2Practice,4,SM2_P_T3,0,2800,0,Box,0
3/18/24,15:27:08,3,2,SM2Practice_Abr,1,SM2_P_Abr1,sign,6039,1,Floor,0
3/18/24,15:27:08,3,2,SM2Practice_Abr,2,SM2_P_Abr2,board,5819,1,Box,0
3/18/24,15:27:08,3,2,SM2Practice_Abr,3,SM2_P_Abr3,pen,4623,1,Photo,0
3/18/24,15:27:08,3,3,SM2Test,1,achtung,0,1700,0,Attention!,0
3/18/24,15:27:08,3,3,SM2Test,2,SM2_T1,0,2800,0,Pepper,0
3/18/24,15:27:08,3,3,SM2Test,3,SM2_T2,0,2800,0,Glove,0
3/18/24,15:27:08,3,3,SM2Test,4,SM2_T3,0,2800,0,Straw,0
3/18/24,15:27:08,3,3,SM2Test,5,SM2_T4,0,2800,0,Mountains,0
3/18/24,15:27:08,3,3,SM2Test,6,SM2_T5,0,2800,0,Pencil,0
3/18/24,15:27:08,3,3,SM2Test,7,SM2_T6,0,2800,0,Wing,0
3/18/24,15:27:08,3,3,SM2Test,8,SM2_T7,0,2800,0,Cabbage,0
3/18/24,15:27:08,3,3,SM2Test,9,SM2_T8,0,2800,0,Piano,0
3/18/24,15:27:08,3,3,SM2Test,10,SM2_T9,0,2800,0,Brain,0
3/18/24,15:27:08,3,3,SM2Test,11,SM2_T10,0,2800,0,Horse,0
3/18/24,15:27:08,3,3,SM2Test,12,SM2_T11,0,2800,0,Shed,0
3/18/24,15:27:08,3,3,SM2Test,13,SM2_T12,0,2800,0,Pumpkin,0
3/18/24,15:27:08,3,3,SM2Test,14,SM2_T13,0,2800,0,Cash,0
3/18/24,15:27:08,3,3,SM2Test,15,SM2_T14,0,2800,0,Cello,0
3/18/24,15:27:08,3,3,SM2Test,16,SM2_T15,0,2800,0,Glass,0
3/18/24,15:27:08,3,3,SM2Test,17,SM2_T16,0,2800,0,Flower,0
3/18/24,15:27:08,3,3,SM2Test,18,SM2_T17,0,2800,0,Coast,0
3/18/24,15:27:08,3,3,SM2Test,19,SM2_T18,0,2800,0,Cream,0
3/18/24,15:27:08,3,3,SM2Test,20,SM2_T19,0,2800,0,Poker,0
3/18/24,15:27:08,3,3,SM2Test,21,SM2_T20,0,2800,0,Duck,0
3/18/24,15:27:08,3,4,Pract_erik2,1,erikCOre,205,1075,1,+,0
3/18/24,15:27:08,3,4,Pract_erik2,2,erikICli,203,564,1,+,0
3/18/24,15:27:08,3,4,Pract_erik2,3,erikCOre,205,764,1,+,0
3/18/24,15:27:08,3,4,Pract_erik2,4,erikCOli,203,491,1,+,0
3/18/24,15:27:08,3,4,Pract_erik2,5,erikCOli,203,565,1,+,0
3/18/24,15:27:08,3,4,Pract_erik2,6,erikICli,205,405,0,+,0
3/18/24,15:27:08,3,4,Pract_erik2,7,erikCOli,203,427,1,+,0
3/18/24,15:27:08,3,4,Pract_erik2,8,erikICre,203,640,0,+,0
3/18/24,15:27:08,3,4,Pract_erik2,9,erikCOre,205,604,1,+,0
3/18/24,15:27:08,3,4,Pract_erik2,10,erikICre,205,634,1,+,0
3/18/24,15:27:08,3,4,Pract_erik2,11,erikICre,205,454,1,+,0
3/18/24,15:27:08,3,4,Pract_erik2,12,erikICli,203,433,1,+,0
3/18/24,15:27:08,3,5,Test_erik2,1,erikCOre,205,577,1,+,0
3/18/24,15:27:08,3,5,Test_erik2,2,erikICli,203,447,1,+,0
3/18/24,15:27:08,3,5,Test_erik2,3,erikICre,205,508,1,+,0
3/18/24,15:27:08,3,5,Test_erik2,4,erikICli,203,445,1,+,0
3/18/24,15:27:08,3,5,Test_erik2,5,erikICli,205,386,0,+,0
3/18/24,15:27:08,3,5,Test_erik2,6,erikICli,203,513,1,+,0
3/18/24,15:27:08,3,5,Test_erik2,7,erikCOli,203,355,1,+,0
3/18/24,15:27:08,3,5,Test_erik2,8,erikCOre,205,347,1,+,0
3/18/24,15:27:08,3,5,Test_erik2,9,erikCOli,203,395,1,+,0
3/18/24,15:27:08,3,5,Test_erik2,10,erikICli,203,546,1,+,0
3/18/24,15:27:08,3,5,Test_erik2,11,erikICre,205,418,1,+,0
3/18/24,15:27:08,3,5,Test_erik2,12,erikICli,203,391,1,+,0
3/18/24,15:27:08,3,5,Test_erik2,13,erikCOre,205,318,1,+,0
3/18/24,15:27:08,3,5,Test_erik2,14,erikICre,205,384,1,+,0
3/18/24,15:27:08,3,5,Test_erik2,15,erikCOre,205,319,1,+,0
3/18/24,15:27:08,3,5,Test_erik2,16,erikCOre,205,289,1,+,0
3/18/24,15:27:08,3,5,Test_erik2,17,erikICre,203,300,0,+,0
3/18/24,15:27:08,3,5,Test_erik2,18,erikCOli,203,334,1,+,0
3/18/24,15:27:08,3,5,Test_erik2,19,erikCOre,205,312,1,+,0
3/18/24,15:27:08,3,5,Test_erik2,20,erikICre,205,386,1,+,0
3/18/24,15:27:08,3,5,Test_erik2,21,erikICre,205,385,1,+,0
3/18/24,15:27:08,3,5,Test_erik2,22,erikCOli,203,392,1,+,0
3/18/24,15:27:08,3,5,Test_erik2,23,erikCOre,205,343,1,+,0
3/18/24,15:27:08,3,5,Test_erik2,24,erikICli,203,408,1,+,0
3/18/24,15:27:08,3,5,Test_erik2,25,erikICre,205,389,1,+,0
3/18/24,15:27:08,3,5,Test_erik2,26,erikCOre,205,332,1,+,0
3/18/24,15:27:08,3,5,Test_erik2,27,erikICre,205,396,1,+,0
3/18/24,15:27:08,3,5,Test_erik2,28,erikCOre,205,331,1,+,0
3/18/24,15:27:08,3,5,Test_erik2,29,erikCOre,205,316,1,+,0
3/18/24,15:27:08,3,5,Test_erik2,30,erikCOli,203,566,1,+,0
3/18/24,15:27:08,3,5,Test_erik2,31,erikCOre,205,318,1,+,0
3/18/24,15:27:08,3,5,Test_erik2,32,erikICli,203,432,1,+,0
3/18/24,15:27:08,3,5,Test_erik2,33,erikCOli,203,341,1,+,0
3/18/24,15:27:08,3,5,Test_erik2,34,erikICli,203,406,1,+,0
3/18/24,15:27:08,3,5,Test_erik2,35,erikCOli,203,331,1,+,0
3/18/24,15:27:08,3,5,Test_erik2,36,erikCOre,205,381,1,+,0
3/18/24,15:27:08,3,5,Test_erik2,37,erikCOre,205,308,1,+,0
3/18/24,15:27:08,3,5,Test_erik2,38,erikICli,203,366,1,+,0
3/18/24,15:27:08,3,5,Test_erik2,39,erikCOre,205,326,1,+,0
3/18/24,15:27:08,3,5,Test_erik2,40,erikICli,203,375,1,+,0
3/18/24,15:27:08,3,5,Test_erik2,41,erikCOli,203,350,1,+,0
3/18/24,15:27:08,3,5,Test_erik2,42,erikCOre,205,366,1,+,0
3/18/24,15:27:08,3,5,Test_erik2,43,erikCOre,205,334,1,+,0
3/18/24,15:27:08,3,5,Test_erik2,44,erikICli,203,376,1,+,0
3/18/24,15:27:08,3,5,Test_erik2,45,erikICli,203,375,1,+,0
3/18/24,15:27:08,3,5,Test_erik2,46,erikCOre,205,310,1,+,0
3/18/24,15:27:08,3,5,Test_erik2,47,erikCOre,205,368,1,+,0
3/18/24,15:27:08,3,5,Test_erik2,48,erikICli,203,360,1,+,0
3/18/24,15:27:08,3,5,Test_erik2,49,erikICli,203,432,1,+,0
3/18/24,15:27:08,3,5,Test_erik2,50,erikICli,203,461,1,+,0
3/18/24,15:27:08,3,5,Test_erik2,51,erikCOli,203,329,1,+,0
3/18/24,15:27:08,3,5,Test_erik2,52,erikCOre,205,418,1,+,0
3/18/24,15:27:08,3,5,Test_erik2,53,erikCOli,203,368,1,+,0
3/18/24,15:27:08,3,5,Test_erik2,54,erikICre,205,392,1,+,0
3/18/24,15:27:08,3,5,Test_erik2,55,erikICli,203,375,1,+,0
3/18/24,15:27:08,3,5,Test_erik2,56,erikICre,205,373,1,+,0
3/18/24,15:27:08,3,5,Test_erik2,57,erikCOli,203,332,1,+,0
3/18/24,15:27:08,3,5,Test_erik2,58,erikICre,205,374,1,+,0
3/18/24,15:27:08,3,5,Test_erik2,59,erikCOre,205,309,1,+,0
3/18/24,15:27:08,3,5,Test_erik2,60,erikCOli,203,327,1,+,0
3/18/24,15:27:08,3,5,Test_erik2,61,erikICre,205,376,1,+,0
3/18/24,15:27:08,3,5,Test_erik2,62,erikICre,205,415,1,+,0
3/18/24,15:27:08,3,5,Test_erik2,63,erikICre,205,421,1,+,0
3/18/24,15:27:08,3,5,Test_erik2,64,erikICre,205,474,1,+,0
3/18/24,15:27:08,3,5,Test_erik2,65,erikCOre,205,318,1,+,0
3/18/24,15:27:08,3,5,Test_erik2,66,erikICre,205,408,1,+,0
3/18/24,15:27:08,3,5,Test_erik2,67,erikCOli,203,629,1,+,0
3/18/24,15:27:08,3,5,Test_erik2,68,erikICli,203,610,1,+,0
3/18/24,15:27:08,3,5,Test_erik2,69,erikCOli,203,448,1,+,0
3/18/24,15:27:08,3,5,Test_erik2,70,erikICre,205,387,1,+,0
3/18/24,15:27:08,3,5,Test_erik2,71,erikCOli,203,386,1,+,0
3/18/24,15:27:08,3,5,Test_erik2,72,erikICli,203,417,1,+,0
3/18/24,15:27:08,3,5,Test_erik2,73,erikCOre,205,359,1,+,0
3/18/24,15:27:08,3,5,Test_erik2,74,erikCOre,205,415,1,+,0
3/18/24,15:27:08,3,5,Test_erik2,75,erikCOre,205,348,1,+,0
3/18/24,15:27:08,3,5,Test_erik2,76,erikCOre,205,381,1,+,0
3/18/24,15:27:08,3,5,Test_erik2,77,erikICli,203,380,1,+,0
3/18/24,15:27:08,3,5,Test_erik2,78,erikICre,205,436,1,+,0
3/18/24,15:27:08,3,5,Test_erik2,79,erikICre,203,465,0,+,0
3/18/24,15:27:08,3,5,Test_erik2,80,erikICli,203,396,1,+,0
3/18/24,15:27:08,3,6,SM2Test_Abr,1,SM2_Abr1,body,5523,1,Cash,0
3/18/24,15:27:08,3,6,SM2Test_Abr,2,SM2_Abr2,sky,12513,0,Cello,0
3/18/24,15:27:08,3,6,SM2Test_Abr,3,SM2_Abr3,paint,8855,0,Chip,0
3/18/24,15:27:08,3,6,SM2Test_Abr,4,SM2_Abr4,house,16072,0,Glass,0
3/18/24,15:27:08,3,6,SM2Test_Abr,5,SM2_Abr5,hut,17805,0,Flower,0
3/18/24,15:27:08,3,6,SM2Test_Abr,6,SM2_Abr6,,30561,0,Tuna,0
3/18/24,15:27:08,3,6,SM2Test_Abr,7,SM2_Abr7,,10801,0,Armband,0
3/18/24,15:27:08,3,6,SM2Test_Abr,8,SM2_Abr8,cup,4543,1,Horse,0
3/18/24,15:27:08,3,6,SM2Test_Abr,9,SM2_Abr9,kitchen,6053,1,Cabbage,0
3/18/24,15:27:08,3,6,SM2Test_Abr,10,SM2_Abr10,,3396,0,Wing,0
3/18/24,15:27:08,3,6,SM2Test_Abr,11,SM2_Abr11,wing,13923,0,Diner,0
3/18/24,15:27:08,3,6,SM2Test_Abr,12,SM2_Abr12,,6446,0,Brain,0
3/18/24,15:27:08,3,6,SM2Test_Abr,13,SM2_Abr13,mountain,4756,0,Stream,0
3/18/24,15:27:08,3,6,SM2Test_Abr,14,SM2_Abr14,,2257,0,Stage,0
3/18/24,15:27:08,3,6,SM2Test_Abr,15,SM2_Abr15,chair,8666,0,Pumpkin,0
3/18/24,15:27:08,3,6,SM2Test_Abr,16,SM2_Abr16,,13600,0,Airplane,0
3/18/24,15:27:08,3,6,SM2Test_Abr,17,SM2_Abr17,,1753,0,Goldfish,0
3/18/24,15:27:08,3,6,SM2Test_Abr,18,SM2_Abr18,stream,4549,0,River,0
3/18/24,15:27:08,3,6,SM2Test_Abr,19,SM2_Abr19,,5067,0,Piano,0
3/18/24,15:27:08,3,6,SM2Test_Abr,20,SM2_Abr20,flower,4966,0,Garden,0
3/18/24,16:41:54,11,1,SM2Practice,1,achtung,0,1700,0,Attention!,0
3/18/24,16:41:54,11,1,SM2Practice,2,SM2_P_T1,0,2800,0,Photo,0
3/18/24,16:41:54,11,1,SM2Practice,3,SM2_P_T2,0,2800,0,Sign,0
3/18/24,16:41:54,11,1,SM2Practice,4,SM2_P_T3,0,2800,0,Box,0
3/18/24,16:41:54,11,2,SM2Practice_Abr,1,SM2_P_Abr1,sign,8560,1,Floor,0
3/18/24,16:41:54,11,2,SM2Practice_Abr,2,SM2_P_Abr2,board,1953,1,Box,0
3/18/24,16:41:54,11,2,SM2Practice_Abr,3,SM2_P_Abr3,pen,1377,1,Photo,0
3/18/24,16:41:54,11,3,SM2Test,1,achtung,0,1700,0,Attention!,0
3/18/24,16:41:54,11,3,SM2Test,2,SM2_T1,0,2800,0,Pepper,0
3/18/24,16:41:54,11,3,SM2Test,3,SM2_T2,0,2800,0,Glove,0
3/18/24,16:41:54,11,3,SM2Test,4,SM2_T3,0,2800,0,Straw,0
3/18/24,16:41:54,11,3,SM2Test,5,SM2_T4,0,2800,0,Mountains,0
3/18/24,16:41:54,11,3,SM2Test,6,SM2_T5,0,2800,0,Pencil,0
3/18/24,16:41:54,11,3,SM2Test,7,SM2_T6,0,2800,0,Wing,0
3/18/24,16:41:54,11,3,SM2Test,8,SM2_T7,0,2800,0,Cabbage,0
3/18/24,16:41:54,11,3,SM2Test,9,SM2_T8,0,2800,0,Piano,0
3/18/24,16:41:54,11,3,SM2Test,10,SM2_T9,0,2800,0,Brain,0
3/18/24,16:41:54,11,3,SM2Test,11,SM2_T10,0,2800,0,Horse,0
3/18/24,16:41:54,11,3,SM2Test,12,SM2_T11,0,2800,0,Shed,0
3/18/24,16:41:54,11,3,SM2Test,13,SM2_T12,0,2800,0,Pumpkin,0
3/18/24,16:41:54,11,3,SM2Test,14,SM2_T13,0,2800,0,Cash,0
3/18/24,16:41:54,11,3,SM2Test,15,SM2_T14,0,2800,0,Cello,0
3/18/24,16:41:54,11,3,SM2Test,16,SM2_T15,0,2800,0,Glass,0
3/18/24,16:41:54,11,3,SM2Test,17,SM2_T16,0,2800,0,Flower,0
3/18/24,16:41:54,11,3,SM2Test,18,SM2_T17,0,2800,0,Coast,0
3/18/24,16:41:54,11,3,SM2Test,19,SM2_T18,0,2800,0,Cream,0
3/18/24,16:41:54,11,3,SM2Test,20,SM2_T19,0,2800,0,Poker,0
3/18/24,16:41:54,11,3,SM2Test,21,SM2_T20,0,2800,0,Duck,0
3/18/24,16:41:54,11,4,Pract_erik2,1,erikCOre,205,954,1,+,0
3/18/24,16:41:54,11,4,Pract_erik2,2,erikCOre,205,569,1,+,0
3/18/24,16:41:54,11,4,Pract_erik2,3,erikICli,205,456,0,+,0
3/18/24,16:41:54,11,4,Pract_erik2,4,erikICli,203,508,1,+,0
3/18/24,16:41:54,11,4,Pract_erik2,5,erikCOli,203,534,1,+,0
3/18/24,16:41:54,11,4,Pract_erik2,6,erikCOre,205,375,1,+,0
3/18/24,16:41:54,11,4,Pract_erik2,7,erikICli,203,510,1,+,0
3/18/24,16:41:54,11,4,Pract_erik2,8,erikCOli,203,487,1,+,0
3/18/24,16:41:54,11,4,Pract_erik2,9,erikICre,205,594,1,+,0
3/18/24,16:41:54,11,4,Pract_erik2,10,erikCOli,203,368,1,+,0
3/18/24,16:41:54,11,4,Pract_erik2,11,erikICre,205,496,1,+,0
3/18/24,16:41:54,11,4,Pract_erik2,12,erikICre,203,370,0,+,0
3/18/24,16:41:54,11,5,Test_erik2,1,erikCOre,205,574,1,+,0
3/18/24,16:41:54,11,5,Test_erik2,2,erikICli,203,533,1,+,0
3/18/24,16:41:54,11,5,Test_erik2,3,erikICre,205,558,1,+,0
3/18/24,16:41:54,11,5,Test_erik2,4,erikICli,203,590,1,+,0
3/18/24,16:41:54,11,5,Test_erik2,5,erikICli,203,548,1,+,0
3/18/24,16:41:54,11,5,Test_erik2,6,erikICli,203,484,1,+,0
3/18/24,16:41:54,11,5,Test_erik2,7,erikCOli,203,431,1,+,0
3/18/24,16:41:54,11,5,Test_erik2,8,erikCOre,205,428,1,+,0
3/18/24,16:41:54,11,5,Test_erik2,9,erikCOli,203,401,1,+,0
3/18/24,16:41:54,11,5,Test_erik2,10,erikICli,203,496,1,+,0
3/18/24,16:41:54,11,5,Test_erik2,11,erikICre,205,578,1,+,0
3/18/24,16:41:54,11,5,Test_erik2,12,erikICli,203,465,1,+,0
3/18/24,16:41:54,11,5,Test_erik2,13,erikCOre,205,420,1,+,0
3/18/24,16:41:54,11,5,Test_erik2,14,erikICre,205,513,1,+,0
3/18/24,16:41:54,11,5,Test_erik2,15,erikCOre,205,467,1,+,0
3/18/24,16:41:54,11,5,Test_erik2,16,erikCOre,205,438,1,+,0
3/18/24,16:41:54,11,5,Test_erik2,17,erikICre,205,499,1,+,0
3/18/24,16:41:54,11,5,Test_erik2,18,erikCOli,203,469,1,+,0
3/18/24,16:41:54,11,5,Test_erik2,19,erikCOre,205,409,1,+,0
3/18/24,16:41:54,11,5,Test_erik2,20,erikICre,205,559,1,+,0
3/18/24,16:41:54,11,5,Test_erik2,21,erikICre,205,510,1,+,0
3/18/24,16:41:54,11,5,Test_erik2,22,erikCOli,203,480,1,+,0
3/18/24,16:41:54,11,5,Test_erik2,23,erikCOre,205,387,1,+,0
3/18/24,16:41:54,11,5,Test_erik2,24,erikICli,203,489,1,+,0
3/18/24,16:41:54,11,5,Test_erik2,25,erikICre,205,500,1,+,0
3/18/24,16:41:54,11,5,Test_erik2,26,erikCOre,205,477,1,+,0
3/18/24,16:41:54,11,5,Test_erik2,27,erikICre,205,512,1,+,0
3/18/24,16:41:54,11,5,Test_erik2,28,erikCOre,205,490,1,+,0
3/18/24,16:41:54,11,5,Test_erik2,29,erikCOre,205,412,1,+,0
3/18/24,16:41:54,11,5,Test_erik2,30,erikCOli,203,474,1,+,0
3/18/24,16:41:54,11,5,Test_erik2,31,erikCOre,205,405,1,+,0
3/18/24,16:41:54,11,5,Test_erik2,32,erikICli,203,515,1,+,0
3/18/24,16:41:54,11,5,Test_erik2,33,erikCOli,203,468,1,+,0
3/18/24,16:41:54,11,5,Test_erik2,34,erikICli,203,480,1,+,0
3/18/24,16:41:54,11,5,Test_erik2,35,erikCOli,203,459,1,+,0
3/18/24,16:41:54,11,5,Test_erik2,36,erikCOre,205,479,1,+,0
3/18/24,16:41:54,11,5,Test_erik2,37,erikCOre,205,418,1,+,0
3/18/24,16:41:54,11,5,Test_erik2,38,erikICli,203,472,1,+,0
3/18/24,16:41:54,11,5,Test_erik2,39,erikCOre,205,379,1,+,0
3/18/24,16:41:54,11,5,Test_erik2,40,erikICli,203,442,1,+,0
3/18/24,16:41:54,11,5,Test_erik2,41,erikCOli,203,406,1,+,0
3/18/24,16:41:54,11,5,Test_erik2,42,erikCOre,205,451,1,+,0
3/18/24,16:41:54,11,5,Test_erik2,43,erikCOre,205,448,1,+,0
3/18/24,16:41:54,11,5,Test_erik2,44,erikICli,203,444,1,+,0
3/18/24,16:41:54,11,5,Test_erik2,45,erikICli,203,529,1,+,0
3/18/24,16:41:54,11,5,Test_erik2,46,erikCOre,205,418,1,+,0
3/18/24,16:41:54,11,5,Test_erik2,47,erikCOre,205,447,1,+,0
3/18/24,16:41:54,11,5,Test_erik2,48,erikICli,203,452,1,+,0
3/18/24,16:41:54,11,5,Test_erik2,49,erikICli,203,504,1,+,0
3/18/24,16:41:54,11,5,Test_erik2,50,erikICli,203,562,1,+,0
3/18/24,16:41:54,11,5,Test_erik2,51,erikCOli,203,410,1,+,0
3/18/24,16:41:54,11,5,Test_erik2,52,erikCOre,205,463,1,+,0
3/18/24,16:41:54,11,5,Test_erik2,53,erikCOli,203,411,1,+,0
3/18/24,16:41:54,11,5,Test_erik2,54,erikICre,205,544,1,+,0
3/18/24,16:41:54,11,5,Test_erik2,55,erikICli,203,472,1,+,0
3/18/24,16:41:54,11,5,Test_erik2,56,erikICre,205,539,1,+,0
3/18/24,16:41:54,11,5,Test_erik2,57,erikCOli,203,387,1,+,0
3/18/24,16:41:54,11,5,Test_erik2,58,erikICre,205,546,1,+,0
3/18/24,16:41:54,11,5,Test_erik2,59,erikCOre,205,410,1,+,0
3/18/24,16:41:54,11,5,Test_erik2,60,erikCOli,203,392,1,+,0
3/18/24,16:41:54,11,5,Test_erik2,61,erikICre,205,631,1,+,0
3/18/24,16:41:54,11,5,Test_erik2,62,erikICre,205,531,1,+,0
3/18/24,16:41:54,11,5,Test_erik2,63,erikICre,205,516,1,+,0
3/18/24,16:41:54,11,5,Test_erik2,64,erikICre,205,534,1,+,0
3/18/24,16:41:54,11,5,Test_erik2,65,erikCOre,205,423,1,+,0
3/18/24,16:41:54,11,5,Test_erik2,66,erikICre,205,516,1,+,0
3/18/24,16:41:54,11,5,Test_erik2,67,erikCOli,203,486,1,+,0
3/18/24,16:41:54,11,5,Test_erik2,68,erikICli,203,536,1,+,0
3/18/24,16:41:54,11,5,Test_erik2,69,erikCOli,203,409,1,+,0
3/18/24,16:41:54,11,5,Test_erik2,70,erikICre,205,454,1,+,0
3/18/24,16:41:54,11,5,Test_erik2,71,erikCOli,203,426,1,+,0
3/18/24,16:41:54,11,5,Test_erik2,72,erikICli,203,575,1,+,0
3/18/24,16:41:54,11,5,Test_erik2,73,erikCOre,205,406,1,+,0
3/18/24,16:41:54,11,5,Test_erik2,74,erikCOre,205,412,1,+,0
3/18/24,16:41:54,11,5,Test_erik2,75,erikCOre,205,426,1,+,0
3/18/24,16:41:54,11,5,Test_erik2,76,erikCOre,205,399,1,+,0
3/18/24,16:41:54,11,5,Test_erik2,77,erikICli,203,430,1,+,0
3/18/24,16:41:54,11,5,Test_erik2,78,erikICre,205,595,1,+,0
3/18/24,16:41:54,11,5,Test_erik2,79,erikICre,205,473,1,+,0
3/18/24,16:41:54,11,5,Test_erik2,80,erikICli,203,484,1,+,0
3/18/24,16:41:54,11,6,SM2Test_Abr,1,SM2_Abr1,body,3473,1,Cash,0
3/18/24,16:41:54,11,6,SM2Test_Abr,2,SM2_Abr2,spinach,3125,1,Cello,0
3/18/24,16:41:54,11,6,SM2Test_Abr,3,SM2_Abr3,,9508,0,Chip,0
3/18/24,16:41:54,11,6,SM2Test_Abr,4,SM2_Abr4,,3905,0,Glass,0
3/18/24,16:41:54,11,6,SM2Test_Abr,5,SM2_Abr5,,2395,0,Flower,0
3/18/24,16:41:54,11,6,SM2Test_Abr,6,SM2_Abr6,pencil,7880,1,Tuna,0
3/18/24,16:41:54,11,6,SM2Test_Abr,7,SM2_Abr7,shed,5128,1,Armband,0
3/18/24,16:41:54,11,6,SM2Test_Abr,8,SM2_Abr8,cup,1993,1,Horse,0
3/18/24,16:41:54,11,6,SM2Test_Abr,9,SM2_Abr9,kitchen,2161,1,Cabbage,0
3/18/24,16:41:54,11,6,SM2Test_Abr,10,SM2_Abr10,,1883,0,Wing,0
3/18/24,16:41:54,11,6,SM2Test_Abr,11,SM2_Abr11,,1961,0,Diner,0
3/18/24,16:41:54,11,6,SM2Test_Abr,12,SM2_Abr12,,9787,0,Brain,0
3/18/24,16:41:54,11,6,SM2Test_Abr,13,SM2_Abr13,,1247,0,Stream,0
3/18/24,16:41:54,11,6,SM2Test_Abr,14,SM2_Abr14,,1110,0,Stage,0
3/18/24,16:41:54,11,6,SM2Test_Abr,15,SM2_Abr15,pen,5653,0,Pumpkin,0
3/18/24,16:41:54,11,6,SM2Test_Abr,16,SM2_Abr16,pepper,3181,1,Airplane,0
3/18/24,16:41:54,11,6,SM2Test_Abr,17,SM2_Abr17,gift,10605,0,Goldfish,0
3/18/24,16:41:54,11,6,SM2Test_Abr,18,SM2_Abr18,,1527,0,River,0
3/18/24,16:41:54,11,6,SM2Test_Abr,19,SM2_Abr19,hut,5033,1,Piano,0
3/18/24,16:41:54,11,6,SM2Test_Abr,20,SM2_Abr20,,1419,0,Garden,0
3/19/24,10:51:39,12,1,SM2Practice,1,achtung,0,1700,0,Attention!,0
3/19/24,10:51:39,12,1,SM2Practice,2,SM2_P_T1,0,2800,0,Photo,0
3/19/24,10:51:39,12,1,SM2Practice,3,SM2_P_T2,0,2800,0,Sign,0
3/19/24,10:51:39,12,1,SM2Practice,4,SM2_P_T3,0,2800,0,Box,0
3/19/24,10:51:39,12,2,SM2Practice_Abr,1,SM2_P_Abr1,pen,7217,0,Floor,0
3/19/24,10:51:39,12,2,SM2Practice_Abr,2,SM2_P_Abr2,board,2845,1,Box,0
3/19/24,10:51:39,12,2,SM2Practice_Abr,3,SM2_P_Abr3,pen,3400,1,Photo,0
3/19/24,10:51:39,12,3,SM2Test,1,achtung,0,1700,0,Attention!,0
3/19/24,10:51:39,12,3,SM2Test,2,SM2_T1,0,2800,0,Pepper,0
3/19/24,10:51:39,12,3,SM2Test,3,SM2_T2,0,2800,0,Glove,0
3/19/24,10:51:39,12,3,SM2Test,4,SM2_T3,0,2800,0,Straw,0
3/19/24,10:51:39,12,3,SM2Test,5,SM2_T4,0,2800,0,Mountains,0
3/19/24,10:51:39,12,3,SM2Test,6,SM2_T5,0,2800,0,Pencil,0
3/19/24,10:51:39,12,3,SM2Test,7,SM2_T6,0,2800,0,Wing,0
3/19/24,10:51:39,12,3,SM2Test,8,SM2_T7,0,2800,0,Cabbage,0
3/19/24,10:51:39,12,3,SM2Test,9,SM2_T8,0,2800,0,Piano,0
3/19/24,10:51:39,12,3,SM2Test,10,SM2_T9,0,2800,0,Brain,0
3/19/24,10:51:39,12,3,SM2Test,11,SM2_T10,0,2800,0,Horse,0
3/19/24,10:51:39,12,3,SM2Test,12,SM2_T11,0,2800,0,Shed,0
3/19/24,10:51:39,12,3,SM2Test,13,SM2_T12,0,2800,0,Pumpkin,0
3/19/24,10:51:39,12,3,SM2Test,14,SM2_T13,0,2800,0,Cash,0
3/19/24,10:51:39,12,3,SM2Test,15,SM2_T14,0,2800,0,Cello,0
3/19/24,10:51:39,12,3,SM2Test,16,SM2_T15,0,2800,0,Glass,0
3/19/24,10:51:39,12,3,SM2Test,17,SM2_T16,0,2800,0,Flower,0
3/19/24,10:51:39,12,3,SM2Test,18,SM2_T17,0,2800,0,Coast,0
3/19/24,10:51:39,12,3,SM2Test,19,SM2_T18,0,2800,0,Cream,0
3/19/24,10:51:39,12,3,SM2Test,20,SM2_T19,0,2800,0,Poker,0
3/19/24,10:51:39,12,3,SM2Test,21,SM2_T20,0,2800,0,Duck,0
3/19/24,10:51:39,12,4,Pract_erik2,1,erikCOre,205,2747,1,+,0
3/19/24,10:51:39,12,4,Pract_erik2,2,erikICli,205,4991,0,+,0
3/19/24,10:51:39,12,4,Pract_erik2,3,erikCOre,205,844,1,+,0
3/19/24,10:51:39,12,4,Pract_erik2,4,erikCOre,205,999,1,+,0
3/19/24,10:51:39,12,4,Pract_erik2,5,erikICre,203,2268,0,+,0
3/19/24,10:51:39,12,4,Pract_erik2,6,erikCOli,203,652,1,+,0
3/19/24,10:51:39,12,4,Pract_erik2,7,erikICre,205,2544,1,+,0
3/19/24,10:51:39,12,4,Pract_erik2,8,erikICli,203,740,1,+,0
3/19/24,10:51:39,12,4,Pract_erik2,9,erikCOli,203,500,1,+,0
3/19/24,10:51:39,12,4,Pract_erik2,10,erikICli,203,799,1,+,0
3/19/24,10:51:39,12,4,Pract_erik2,11,erikICre,205,491,1,+,0
3/19/24,10:51:39,12,4,Pract_erik2,12,erikCOli,203,358,1,+,0
3/19/24,10:51:39,12,5,Test_erik2,1,erikCOre,205,603,1,+,0
3/19/24,10:51:39,12,5,Test_erik2,2,erikICli,203,585,1,+,0
3/19/24,10:51:39,12,5,Test_erik2,3,erikICre,205,656,1,+,0
3/19/24,10:51:39,12,5,Test_erik2,4,erikICli,203,459,1,+,0
3/19/24,10:51:39,12,5,Test_erik2,5,erikICli,205,311,0,+,0
3/19/24,10:51:39,12,5,Test_erik2,6,erikICli,203,496,1,+,0
3/19/24,10:51:39,12,5,Test_erik2,7,erikCOli,203,378,1,+,0
3/19/24,10:51:39,12,5,Test_erik2,8,erikCOre,205,458,1,+,0
3/19/24,10:51:39,12,5,Test_erik2,9,erikCOli,203,373,1,+,0
3/19/24,10:51:39,12,5,Test_erik2,10,erikICli,203,453,1,+,0
3/19/24,10:51:39,12,5,Test_erik2,11,erikICre,205,505,1,+,0
3/19/24,10:51:39,12,5,Test_erik2,12,erikICli,203,451,1,+,0
3/19/24,10:51:39,12,5,Test_erik2,13,erikCOre,205,359,1,+,0
3/19/24,10:51:39,12,5,Test_erik2,14,erikICre,203,343,0,+,0
3/19/24,10:51:39,12,5,Test_erik2,15,erikCOre,205,408,1,+,0
3/19/24,10:51:39,12,5,Test_erik2,16,erikCOre,205,509,1,+,0
3/19/24,10:51:39,12,5,Test_erik2,17,erikICre,205,527,1,+,0
3/19/24,10:51:39,12,5,Test_erik2,18,erikCOli,203,351,1,+,0
3/19/24,10:51:39,12,5,Test_erik2,19,erikCOre,205,512,1,+,0
3/19/24,10:51:39,12,5,Test_erik2,20,erikICre,205,514,1,+,0
3/19/24,10:51:39,12,5,Test_erik2,21,erikICre,205,571,1,+,0
3/19/24,10:51:39,12,5,Test_erik2,22,erikCOli,203,362,1,+,0
3/19/24,10:51:39,12,5,Test_erik2,23,erikCOre,205,394,1,+,0
3/19/24,10:51:39,12,5,Test_erik2,24,erikICli,203,473,1,+,0
3/19/24,10:51:39,12,5,Test_erik2,25,erikICre,205,460,1,+,0
3/19/24,10:51:39,12,5,Test_erik2,26,erikCOre,205,384,1,+,0
3/19/24,10:51:39,12,5,Test_erik2,27,erikICre,205,478,1,+,0
3/19/24,10:51:39,12,5,Test_erik2,28,erikCOre,205,361,1,+,0
3/19/24,10:51:39,12,5,Test_erik2,29,erikCOre,205,385,1,+,0
3/19/24,10:51:39,12,5,Test_erik2,30,erikCOli,203,344,1,+,0
3/19/24,10:51:39,12,5,Test_erik2,31,erikCOre,205,369,1,+,0
3/19/24,10:51:39,12,5,Test_erik2,32,erikICli,203,497,1,+,0
3/19/24,10:51:39,12,5,Test_erik2,33,erikCOli,203,379,1,+,0
3/19/24,10:51:39,12,5,Test_erik2,34,erikICli,203,499,1,+,0
3/19/24,10:51:39,12,5,Test_erik2,35,erikCOli,203,437,1,+,0
3/19/24,10:51:39,12,5,Test_erik2,36,erikCOre,205,377,1,+,0
3/19/24,10:51:39,12,5,Test_erik2,37,erikCOre,205,408,1,+,0
3/19/24,10:51:39,12,5,Test_erik2,38,erikICli,203,453,1,+,0
3/19/24,10:51:39,12,5,Test_erik2,39,erikCOre,205,369,1,+,0
3/19/24,10:51:39,12,5,Test_erik2,40,erikICli,203,417,1,+,0
3/19/24,10:51:39,12,5,Test_erik2,41,erikCOli,203,375,1,+,0
3/19/24,10:51:39,12,5,Test_erik2,42,erikCOre,205,398,1,+,0
3/19/24,10:51:39,12,5,Test_erik2,43,erikCOre,205,365,1,+,0
3/19/24,10:51:39,12,5,Test_erik2,44,erikICli,203,381,1,+,0
3/19/24,10:51:39,12,5,Test_erik2,45,erikICli,203,404,1,+,0
3/19/24,10:51:39,12,5,Test_erik2,46,erikCOre,205,378,1,+,0
3/19/24,10:51:39,12,5,Test_erik2,47,erikCOre,205,385,1,+,0
3/19/24,10:51:39,12,5,Test_erik2,48,erikICli,203,440,1,+,0
3/19/24,10:51:39,12,5,Test_erik2,49,erikICli,203,468,1,+,0
3/19/24,10:51:39,12,5,Test_erik2,50,erikICli,203,440,1,+,0
3/19/24,10:51:39,12,5,Test_erik2,51,erikCOli,203,332,1,+,0
3/19/24,10:51:39,12,5,Test_erik2,52,erikCOre,205,366,1,+,0
3/19/24,10:51:39,12,5,Test_erik2,53,erikCOli,203,350,1,+,0
3/19/24,10:51:39,12,5,Test_erik2,54,erikICre,205,502,1,+,0
3/19/24,10:51:39,12,5,Test_erik2,55,erikICli,203,441,1,+,0
3/19/24,10:51:39,12,5,Test_erik2,56,erikICre,203,333,0,+,0
3/19/24,10:51:39,12,5,Test_erik2,57,erikCOli,203,383,1,+,0
3/19/24,10:51:39,12,5,Test_erik2,58,erikICre,205,470,1,+,0
3/19/24,10:51:39,12,5,Test_erik2,59,erikCOre,205,418,1,+,0
3/19/24,10:51:39,12,5,Test_erik2,60,erikCOli,203,342,1,+,0
3/19/24,10:51:39,12,5,Test_erik2,61,erikICre,205,479,1,+,0
3/19/24,10:51:39,12,5,Test_erik2,62,erikICre,205,466,1,+,0
3/19/24,10:51:39,12,5,Test_erik2,63,erikICre,203,406,0,+,0
3/19/24,10:51:39,12,5,Test_erik2,64,erikICre,205,500,1,+,0
3/19/24,10:51:39,12,5,Test_erik2,65,erikCOre,205,374,1,+,0
3/19/24,10:51:39,12,5,Test_erik2,66,erikICre,203,429,0,+,0
3/19/24,10:51:39,12,5,Test_erik2,67,erikCOli,203,491,1,+,0
3/19/24,10:51:39,12,5,Test_erik2,68,erikICli,203,469,1,+,0
3/19/24,10:51:39,12,5,Test_erik2,69,erikCOli,203,408,1,+,0
3/19/24,10:51:39,12,5,Test_erik2,70,erikICre,205,702,1,+,0
3/19/24,10:51:39,12,5,Test_erik2,71,erikCOli,203,392,1,+,0
3/19/24,10:51:39,12,5,Test_erik2,72,erikICli,203,526,1,+,0
3/19/24,10:51:39,12,5,Test_erik2,73,erikCOre,205,367,1,+,0
3/19/24,10:51:39,12,5,Test_erik2,74,erikCOre,205,399,1,+,0
3/19/24,10:51:39,12,5,Test_erik2,75,erikCOre,205,374,1,+,0
3/19/24,10:51:39,12,5,Test_erik2,76,erikCOre,205,365,1,+,0
3/19/24,10:51:39,12,5,Test_erik2,77,erikICli,203,509,1,+,0
3/19/24,10:51:39,12,5,Test_erik2,78,erikICre,205,470,1,+,0
3/19/24,10:51:39,12,5,Test_erik2,79,erikICre,205,434,1,+,0
3/19/24,10:51:39,12,5,Test_erik2,80,erikICli,203,462,1,+,0
3/19/24,10:51:39,12,6,SM2Test_Abr,1,SM2_Abr1,body,4147,1,Cash,0
3/19/24,10:51:39,12,6,SM2Test_Abr,2,SM2_Abr2,spinach,8857,1,Cello,0
3/19/24,10:51:39,12,6,SM2Test_Abr,3,SM2_Abr3,,3469,0,Chip,0
3/19/24,10:51:39,12,6,SM2Test_Abr,4,SM2_Abr4,bamboo,5104,1,Glass,0
3/19/24,10:51:39,12,6,SM2Test_Abr,5,SM2_Abr5,cup,14391,0,Flower,0
3/19/24,10:51:39,12,6,SM2Test_Abr,6,SM2_Abr6,,13792,0,Tuna,0
3/19/24,10:51:39,12,6,SM2Test_Abr,7,SM2_Abr7,shed,5040,1,Armband,0
3/19/24,10:51:39,12,6,SM2Test_Abr,8,SM2_Abr8,cup,6223,1,Horse,0
3/19/24,10:51:39,12,6,SM2Test_Abr,9,SM2_Abr9,kitchen,3354,1,Cabbage,0
3/19/24,10:51:39,12,6,SM2Test_Abr,10,SM2_Abr10,canvas,6208,1,Wing,0
3/19/24,10:51:39,12,6,SM2Test_Abr,11,SM2_Abr11,,8179,0,Diner,0
3/19/24,10:51:39,12,6,SM2Test_Abr,12,SM2_Abr12,,6678,0,Brain,0
3/19/24,10:51:39,12,6,SM2Test_Abr,13,SM2_Abr13,straw,5629,0,Stream,0
3/19/24,10:51:39,12,6,SM2Test_Abr,14,SM2_Abr14,flower,20707,0,Stage,0
3/19/24,10:51:39,12,6,SM2Test_Abr,15,SM2_Abr15,rhino,4588,1,Pumpkin,0
3/19/24,10:51:39,12,6,SM2Test_Abr,16,SM2_Abr16,wing,14201,0,Airplane,0
3/19/24,10:51:39,12,6,SM2Test_Abr,17,SM2_Abr17,,6430,0,Goldfish,0
3/19/24,10:51:39,12,6,SM2Test_Abr,18,SM2_Abr18,straw,3112,0,River,0
3/19/24,10:51:39,12,6,SM2Test_Abr,19,SM2_Abr19,cello,15666,0,Piano,0
3/19/24,10:51:39,12,6,SM2Test_Abr,20,SM2_Abr20,tool,7589,0,Garden,0
3/19/24,14:22:16,17,1,SM2Practice,1,achtung,0,1700,0,Attention!,0
3/19/24,14:22:16,17,1,SM2Practice,2,SM2_P_T1,0,2800,0,Photo,0
3/19/24,14:22:16,17,1,SM2Practice,3,SM2_P_T2,0,2800,0,Sign,0
3/19/24,14:22:16,17,1,SM2Practice,4,SM2_P_T3,0,2800,0,Box,0
3/19/24,14:22:16,17,2,SM2Practice_Abr,1,SM2_P_Abr1,ground,13312,0,Floor,0
3/19/24,14:22:16,17,2,SM2Practice_Abr,2,SM2_P_Abr2,board,6450,1,Box,0
3/19/24,14:22:16,17,2,SM2Practice_Abr,3,SM2_P_Abr3,picture,7258,0,Photo,0
3/19/24,14:22:16,17,3,SM2Test,1,achtung,0,1700,0,Attention!,0
3/19/24,14:22:16,17,3,SM2Test,2,SM2_T1,0,2800,0,Pepper,0
3/19/24,14:22:16,17,3,SM2Test,3,SM2_T2,0,2800,0,Glove,0
3/19/24,14:22:16,17,3,SM2Test,4,SM2_T3,0,2800,0,Straw,0
3/19/24,14:22:16,17,3,SM2Test,5,SM2_T4,0,2800,0,Mountains,0
3/19/24,14:22:16,17,3,SM2Test,6,SM2_T5,0,2800,0,Pencil,0
3/19/24,14:22:16,17,3,SM2Test,7,SM2_T6,0,2800,0,Wing,0
3/19/24,14:22:16,17,3,SM2Test,8,SM2_T7,0,2800,0,Cabbage,0
3/19/24,14:22:16,17,3,SM2Test,9,SM2_T8,0,2800,0,Piano,0
3/19/24,14:22:16,17,3,SM2Test,10,SM2_T9,0,2800,0,Brain,0
3/19/24,14:22:16,17,3,SM2Test,11,SM2_T10,0,2800,0,Horse,0
3/19/24,14:22:16,17,3,SM2Test,12,SM2_T11,0,2800,0,Shed,0
3/19/24,14:22:16,17,3,SM2Test,13,SM2_T12,0,2800,0,Pumpkin,0
3/19/24,14:22:16,17,3,SM2Test,14,SM2_T13,0,2800,0,Cash,0
3/19/24,14:22:16,17,3,SM2Test,15,SM2_T14,0,2800,0,Cello,0
3/19/24,14:22:16,17,3,SM2Test,16,SM2_T15,0,2800,0,Glass,0
3/19/24,14:22:16,17,3,SM2Test,17,SM2_T16,0,2800,0,Flower,0
3/19/24,14:22:16,17,3,SM2Test,18,SM2_T17,0,2800,0,Coast,0
3/19/24,14:22:16,17,3,SM2Test,19,SM2_T18,0,2800,0,Cream,0
3/19/24,14:22:16,17,3,SM2Test,20,SM2_T19,0,2800,0,Poker,0
3/19/24,14:22:16,17,3,SM2Test,21,SM2_T20,0,2800,0,Duck,0
3/19/24,14:22:16,17,4,Pract_erik2,1,erikCOli,203,88351,1,+,0
3/19/24,14:22:16,17,4,Pract_erik2,2,erikCOre,205,1738,1,+,0
3/19/24,14:22:16,17,4,Pract_erik2,3,erikICre,203,11888,0,+,0
3/19/24,14:22:16,17,4,Pract_erik2,4,erikICli,203,6683,1,+,0
3/19/24,14:22:16,17,4,Pract_erik2,5,erikICli,205,3305,0,+,0
3/19/24,14:22:16,17,4,Pract_erik2,6,erikCOli,205,4365,0,+,0
3/19/24,14:22:16,17,4,Pract_erik2,7,erikCOli,203,804,1,+,0
3/19/24,14:22:16,17,4,Pract_erik2,8,erikICre,203,1313,0,+,0
3/19/24,14:22:16,17,4,Pract_erik2,9,erikCOre,205,1457,1,+,0
3/19/24,14:22:16,17,4,Pract_erik2,10,erikICre,203,1018,0,+,0
3/19/24,14:22:16,17,4,Pract_erik2,11,erikCOre,205,447,1,+,0
3/19/24,14:22:16,17,4,Pract_erik2,12,erikICli,203,635,1,+,0
3/19/24,14:22:16,17,5,Test_erik2,1,erikCOre,203,2029,0,+,0
3/19/24,14:22:16,17,5,Test_erik2,2,erikICli,205,750,0,+,0
3/19/24,14:22:16,17,5,Test_erik2,3,erikICre,203,86,0,+,0
3/19/24,14:22:16,17,5,Test_erik2,4,erikICli,205,3825,0,+,0
3/19/24,14:22:16,17,5,Test_erik2,5,erikICli,205,3560,0,+,0
3/19/24,14:22:16,17,5,Test_erik2,6,erikICli,203,1633,1,+,0
3/19/24,14:22:16,17,5,Test_erik2,7,erikCOli,205,2699,0,+,0
3/19/24,14:22:16,17,5,Test_erik2,8,erikCOre,203,617,0,+,0
3/19/24,14:22:16,17,5,Test_erik2,9,erikCOli,203,1078,1,+,0
3/19/24,14:22:16,17,5,Test_erik2,10,erikICli,203,376,1,+,0
3/19/24,14:22:16,17,5,Test_erik2,11,erikICre,203,391,0,+,0
3/19/24,14:22:16,17,5,Test_erik2,12,erikICli,203,542,1,+,0
3/19/24,14:22:16,17,5,Test_erik2,13,erikCOre,205,374,1,+,0
3/19/24,14:22:16,17,5,Test_erik2,14,erikICre,203,629,0,+,0
3/19/24,14:22:16,17,5,Test_erik2,15,erikCOre,205,482,1,+,0
3/19/24,14:22:16,17,5,Test_erik2,16,erikCOre,205,749,1,+,0
3/19/24,14:22:16,17,5,Test_erik2,17,erikICre,205,1028,1,+,0
3/19/24,14:22:16,17,5,Test_erik2,18,erikCOli,205,648,0,+,0
3/19/24,14:22:16,17,5,Test_erik2,19,erikCOre,203,564,0,+,0
3/19/24,14:22:16,17,5,Test_erik2,20,erikICre,205,660,1,+,0
3/19/24,14:22:16,17,5,Test_erik2,21,erikICre,203,383,0,+,0
3/19/24,14:22:16,17,5,Test_erik2,22,erikCOli,205,430,0,+,0
3/19/24,14:22:16,17,5,Test_erik2,23,erikCOre,203,387,0,+,0
3/19/24,14:22:16,17,5,Test_erik2,24,erikICli,205,306,0,+,0
3/19/24,14:22:16,17,5,Test_erik2,25,erikICre,203,380,0,+,0
3/19/24,14:22:16,17,5,Test_erik2,26,erikCOre,205,355,1,+,0
3/19/24,14:22:16,17,5,Test_erik2,27,erikICre,203,379,0,+,0
3/19/24,14:22:16,17,5,Test_erik2,28,erikCOre,205,266,1,+,0
3/19/24,14:22:16,17,5,Test_erik2,29,erikCOre,203,486,0,+,0
3/19/24,14:22:16,17,5,Test_erik2,30,erikCOli,205,249,0,+,0
3/19/24,14:22:16,17,5,Test_erik2,31,erikCOre,203,182,0,+,0
3/19/24,14:22:16,17,5,Test_erik2,32,erikICli,205,261,0,+,0
3/19/24,14:22:16,17,5,Test_erik2,33,erikCOli,203,257,1,+,0
3/19/24,14:22:16,17,5,Test_erik2,34,erikICli,203,598,1,+,0
3/19/24,14:22:16,17,5,Test_erik2,35,erikCOli,203,795,1,+,0
3/19/24,14:22:16,17,5,Test_erik2,36,erikCOre,205,568,1,+,0
3/19/24,14:22:16,17,5,Test_erik2,37,erikCOre,205,488,1,+,0
3/19/24,14:22:16,17,5,Test_erik2,38,erikICli,205,346,0,+,0
3/19/24,14:22:16,17,5,Test_erik2,39,erikCOre,205,419,1,+,0
3/19/24,14:22:16,17,5,Test_erik2,40,erikICli,205,489,0,+,0
3/19/24,14:22:16,17,5,Test_erik2,41,erikCOli,203,307,1,+,0
3/19/24,14:22:16,17,5,Test_erik2,42,erikCOre,205,325,1,+,0
3/19/24,14:22:16,17,5,Test_erik2,43,erikCOre,203,334,0,+,0
3/19/24,14:22:16,17,5,Test_erik2,44,erikICli,205,106510,0,+,0
3/19/24,14:22:16,17,5,Test_erik2,45,erikICli,205,765,0,+,0
3/19/24,14:22:16,17,5,Test_erik2,46,erikCOre,203,628,0,+,0
3/19/24,14:22:16,17,5,Test_erik2,47,erikCOre,205,585,1,+,0
3/19/24,14:22:16,17,5,Test_erik2,48,erikICli,205,35304,0,+,0
3/19/24,14:22:16,17,5,Test_erik2,49,erikICli,205,88161,0,+,0
3/19/24,14:22:16,17,5,Test_erik2,50,erikICli,203,779,1,+,0
3/19/24,14:22:16,17,5,Test_erik2,51,erikCOli,205,489,0,+,0
3/19/24,14:22:16,17,5,Test_erik2,52,erikCOre,203,764,0,+,0
3/19/24,14:22:16,17,5,Test_erik2,53,erikCOli,205,635,0,+,0
3/19/24,14:22:16,17,5,Test_erik2,54,erikICre,203,519,0,+,0
3/19/24,14:22:16,17,5,Test_erik2,55,erikICli,203,505,1,+,0
3/19/24,14:22:16,17,5,Test_erik2,56,erikICre,203,778,0,+,0
3/19/24,14:22:16,17,5,Test_erik2,57,erikCOli,205,4681,0,+,0
3/19/24,14:22:16,17,5,Test_erik2,58,erikICre,203,2083,0,+,0
3/19/24,14:22:16,17,5,Test_erik2,59,erikCOre,205,3074,1,+,0
3/19/24,14:22:16,17,5,Test_erik2,60,erikCOli,205,1392,0,+,0
3/19/24,14:22:16,17,5,Test_erik2,61,erikICre,203,1677,0,+,0
3/19/24,14:22:16,17,5,Test_erik2,62,erikICre,205,1501,1,+,0
3/19/24,14:22:16,17,5,Test_erik2,63,erikICre,205,1085,1,+,0
3/19/24,14:22:16,17,5,Test_erik2,64,erikICre,205,783,1,+,0
3/19/24,14:22:16,17,5,Test_erik2,65,erikCOre,203,1389,0,+,0
3/19/24,14:22:16,17,5,Test_erik2,66,erikICre,205,657,1,+,0
3/19/24,14:22:16,17,5,Test_erik2,67,erikCOli,205,597,0,+,0
3/19/24,14:22:16,17,5,Test_erik2,68,erikICli,203,483,1,+,0
3/19/24,14:22:16,17,5,Test_erik2,69,erikCOli,203,486,1,+,0
3/19/24,14:22:16,17,5,Test_erik2,70,erikICre,205,5784,1,+,0
3/19/24,14:22:16,17,5,Test_erik2,71,erikCOli,203,2835,1,+,0
3/19/24,14:22:16,17,5,Test_erik2,72,erikICli,205,2211,0,+,0
3/19/24,14:22:16,17,5,Test_erik2,73,erikCOre,203,757,0,+,0
3/19/24,14:22:16,17,5,Test_erik2,74,erikCOre,205,892,1,+,0
3/19/24,14:22:16,17,5,Test_erik2,75,erikCOre,203,3174,0,+,0
3/19/24,14:22:16,17,5,Test_erik2,76,erikCOre,205,575,1,+,0
3/19/24,14:22:16,17,5,Test_erik2,77,erikICli,205,1806,0,+,0
3/19/24,14:22:16,17,5,Test_erik2,78,erikICre,203,433,0,+,0
3/19/24,14:22:16,17,5,Test_erik2,79,erikICre,205,494,1,+,0
3/19/24,14:22:16,17,5,Test_erik2,80,erikICli,203,416,1,+,0
3/19/24,14:22:16,17,6,SM2Test_Abr,1,SM2_Abr1,money,11937,0,Cash,0
3/19/24,14:22:16,17,6,SM2Test_Abr,2,SM2_Abr2,horse,10970,0,Cello,0
3/19/24,14:22:16,17,6,SM2Test_Abr,3,SM2_Abr3,desk,7186,0,Chip,0
3/19/24,14:22:16,17,6,SM2Test_Abr,4,SM2_Abr4,frames,5296,0,Glass,0
3/19/24,14:22:16,17,6,SM2Test_Abr,5,SM2_Abr5,table,18906,0,Flower,0
3/19/24,14:22:16,17,6,SM2Test_Abr,6,SM2_Abr6,cat,6052,0,Tuna,0
3/19/24,14:22:16,17,6,SM2Test_Abr,7,SM2_Abr7,skatborad,9287,0,Armband,0
3/19/24,14:22:16,17,6,SM2Test_Abr,8,SM2_Abr8,,15898,0,Horse,0
3/19/24,14:22:16,17,6,SM2Test_Abr,9,SM2_Abr9,,4324,0,Cabbage,0
3/19/24,14:22:16,17,6,SM2Test_Abr,10,SM2_Abr10,table,8726,0,Wing,0
3/19/24,14:22:16,17,6,SM2Test_Abr,11,SM2_Abr11,food,3853,0,Diner,0
3/19/24,14:22:16,17,6,SM2Test_Abr,12,SM2_Abr12,placementg,21750,0,Brain,0
3/19/24,14:22:16,17,6,SM2Test_Abr,13,SM2_Abr13,waterf,3338,0,Stream,0
3/19/24,14:22:16,17,6,SM2Test_Abr,14,SM2_Abr14,perfromce,62155,0,Stage,0
3/19/24,14:22:16,17,6,SM2Test_Abr,15,SM2_Abr15,food,9450,0,Pumpkin,0
3/19/24,14:22:16,17,6,SM2Test_Abr,16,SM2_Abr16,people,7354,0,Airplane,0
3/19/24,14:22:16,17,6,SM2Test_Abr,17,SM2_Abr17,,11051,0,Goldfish,0
3/19/24,14:22:16,17,6,SM2Test_Abr,18,SM2_Abr18,water,3795,0,River,0
3/19/24,14:22:16,17,6,SM2Test_Abr,19,SM2_Abr19,playing,10378,0,Piano,0
3/19/24,14:22:16,17,6,SM2Test_Abr,20,SM2_Abr20,flowers,5875,0,Garden,0
3/19/24,17:13:40,18,1,SM2Practice,1,achtung,0,1700,0,Attention!,0
3/19/24,17:13:40,18,1,SM2Practice,2,SM2_P_T1,0,2800,0,Photo,0
3/19/24,17:13:40,18,1,SM2Practice,3,SM2_P_T2,0,2800,0,Sign,0
3/19/24,17:13:40,18,1,SM2Practice,4,SM2_P_T3,0,2800,0,Box,0
3/19/24,17:13:40,18,2,SM2Practice_Abr,1,SM2_P_Abr1,flight,8308,0,Floor,0
3/19/24,17:13:40,18,2,SM2Practice_Abr,2,SM2_P_Abr2,board,2456,1,Box,0
3/19/24,17:13:40,18,2,SM2Practice_Abr,3,SM2_P_Abr3,pen,2074,1,Photo,0
3/19/24,17:13:40,18,3,SM2Test,1,achtung,0,1700,0,Attention!,0
3/19/24,17:13:40,18,3,SM2Test,2,SM2_T1,0,2800,0,Pepper,0
3/19/24,17:13:40,18,3,SM2Test,3,SM2_T2,0,2800,0,Glove,0
3/19/24,17:13:40,18,3,SM2Test,4,SM2_T3,0,2800,0,Straw,0
3/19/24,17:13:40,18,3,SM2Test,5,SM2_T4,0,2800,0,Mountains,0
3/19/24,17:13:40,18,3,SM2Test,6,SM2_T5,0,2800,0,Pencil,0
3/19/24,17:13:40,18,3,SM2Test,7,SM2_T6,0,2800,0,Wing,0
3/19/24,17:13:40,18,3,SM2Test,8,SM2_T7,0,2800,0,Cabbage,0
3/19/24,17:13:40,18,3,SM2Test,9,SM2_T8,0,2800,0,Piano,0
3/19/24,17:13:40,18,3,SM2Test,10,SM2_T9,0,2800,0,Brain,0
3/19/24,17:13:40,18,3,SM2Test,11,SM2_T10,0,2800,0,Horse,0
3/19/24,17:13:40,18,3,SM2Test,12,SM2_T11,0,2800,0,Shed,0
3/19/24,17:13:40,18,3,SM2Test,13,SM2_T12,0,2800,0,Pumpkin,0
3/19/24,17:13:40,18,3,SM2Test,14,SM2_T13,0,2800,0,Cash,0
3/19/24,17:13:40,18,3,SM2Test,15,SM2_T14,0,2800,0,Cello,0
3/19/24,17:13:40,18,3,SM2Test,16,SM2_T15,0,2800,0,Glass,0
3/19/24,17:13:40,18,3,SM2Test,17,SM2_T16,0,2800,0,Flower,0
3/19/24,17:13:40,18,3,SM2Test,18,SM2_T17,0,2800,0,Coast,0
3/19/24,17:13:40,18,3,SM2Test,19,SM2_T18,0,2800,0,Cream,0
3/19/24,17:13:40,18,3,SM2Test,20,SM2_T19,0,2800,0,Poker,0
3/19/24,17:13:40,18,3,SM2Test,21,SM2_T20,0,2800,0,Duck,0
3/19/24,17:13:40,18,4,Pract_erik2,1,erikICli,203,1251,1,+,0
3/19/24,17:13:40,18,4,Pract_erik2,2,erikICli,203,902,1,+,0
3/19/24,17:13:40,18,4,Pract_erik2,3,erikCOre,205,448,1,+,0
3/19/24,17:13:40,18,4,Pract_erik2,4,erikICre,205,652,1,+,0
3/19/24,17:13:40,18,4,Pract_erik2,5,erikICre,205,567,1,+,0
3/19/24,17:13:40,18,4,Pract_erik2,6,erikCOre,205,623,1,+,0
3/19/24,17:13:40,18,4,Pract_erik2,7,erikCOli,203,500,1,+,0
3/19/24,17:13:40,18,4,Pract_erik2,8,erikCOli,203,510,1,+,0
3/19/24,17:13:40,18,4,Pract_erik2,9,erikICre,205,512,1,+,0
3/19/24,17:13:40,18,4,Pract_erik2,10,erikCOli,203,401,1,+,0
3/19/24,17:13:40,18,4,Pract_erik2,11,erikICli,205,752,0,+,0
3/19/24,17:13:40,18,4,Pract_erik2,12,erikCOre,205,432,1,+,0
3/19/24,17:13:40,18,5,Test_erik2,1,erikCOre,205,502,1,+,0
3/19/24,17:13:40,18,5,Test_erik2,2,erikICli,203,504,1,+,0
3/19/24,17:13:40,18,5,Test_erik2,3,erikICre,205,530,1,+,0
3/19/24,17:13:40,18,5,Test_erik2,4,erikICli,203,539,1,+,0
3/19/24,17:13:40,18,5,Test_erik2,5,erikICli,203,563,1,+,0
3/19/24,17:13:40,18,5,Test_erik2,6,erikICli,203,459,1,+,0
3/19/24,17:13:40,18,5,Test_erik2,7,erikCOli,203,479,1,+,0
3/19/24,17:13:40,18,5,Test_erik2,8,erikCOre,205,450,1,+,0
3/19/24,17:13:40,18,5,Test_erik2,9,erikCOli,203,406,1,+,0
3/19/24,17:13:40,18,5,Test_erik2,10,erikICli,203,491,1,+,0
3/19/24,17:13:40,18,5,Test_erik2,11,erikICre,205,525,1,+,0
3/19/24,17:13:40,18,5,Test_erik2,12,erikICli,203,510,1,+,0
3/19/24,17:13:40,18,5,Test_erik2,13,erikCOre,205,416,1,+,0
3/19/24,17:13:40,18,5,Test_erik2,14,erikICre,205,502,1,+,0
3/19/24,17:13:40,18,5,Test_erik2,15,erikCOre,205,408,1,+,0
3/19/24,17:13:40,18,5,Test_erik2,16,erikCOre,205,374,1,+,0
3/19/24,17:13:40,18,5,Test_erik2,17,erikICre,205,565,1,+,0
3/19/24,17:13:40,18,5,Test_erik2,18,erikCOli,203,469,1,+,0
3/19/24,17:13:40,18,5,Test_erik2,19,erikCOre,205,337,1,+,0
3/19/24,17:13:40,18,5,Test_erik2,20,erikICre,205,488,1,+,0
3/19/24,17:13:40,18,5,Test_erik2,21,erikICre,205,459,1,+,0
3/19/24,17:13:40,18,5,Test_erik2,22,erikCOli,203,487,1,+,0
3/19/24,17:13:40,18,5,Test_erik2,23,erikCOre,205,353,1,+,0
3/19/24,17:13:40,18,5,Test_erik2,24,erikICli,203,433,1,+,0
3/19/24,17:13:40,18,5,Test_erik2,25,erikICre,205,478,1,+,0
3/19/24,17:13:40,18,5,Test_erik2,26,erikCOre,205,401,1,+,0
3/19/24,17:13:40,18,5,Test_erik2,27,erikICre,205,584,1,+,0
3/19/24,17:13:40,18,5,Test_erik2,28,erikCOre,205,415,1,+,0
3/19/24,17:13:40,18,5,Test_erik2,29,erikCOre,205,372,1,+,0
3/19/24,17:13:40,18,5,Test_erik2,30,erikCOli,203,459,1,+,0
3/19/24,17:13:40,18,5,Test_erik2,31,erikCOre,205,431,1,+,0
3/19/24,17:13:40,18,5,Test_erik2,32,erikICli,203,540,1,+,0
3/19/24,17:13:40,18,5,Test_erik2,33,erikCOli,203,412,1,+,0
3/19/24,17:13:40,18,5,Test_erik2,34,erikICli,203,466,1,+,0
3/19/24,17:13:40,18,5,Test_erik2,35,erikCOli,203,430,1,+,0
3/19/24,17:13:40,18,5,Test_erik2,36,erikCOre,205,419,1,+,0
3/19/24,17:13:40,18,5,Test_erik2,37,erikCOre,205,369,1,+,0
3/19/24,17:13:40,18,5,Test_erik2,38,erikICli,203,489,1,+,0
3/19/24,17:13:40,18,5,Test_erik2,39,erikCOre,205,386,1,+,0
3/19/24,17:13:40,18,5,Test_erik2,40,erikICli,203,457,1,+,0
3/19/24,17:13:40,18,5,Test_erik2,41,erikCOli,203,396,1,+,0
3/19/24,17:13:40,18,5,Test_erik2,42,erikCOre,205,395,1,+,0
3/19/24,17:13:40,18,5,Test_erik2,43,erikCOre,205,385,1,+,0
3/19/24,17:13:40,18,5,Test_erik2,44,erikICli,203,457,1,+,0
3/19/24,17:13:40,18,5,Test_erik2,45,erikICli,203,477,1,+,0
3/19/24,17:13:40,18,5,Test_erik2,46,erikCOre,205,384,1,+,0
3/19/24,17:13:40,18,5,Test_erik2,47,erikCOre,205,415,1,+,0
3/19/24,17:13:40,18,5,Test_erik2,48,erikICli,203,509,1,+,0
3/19/24,17:13:40,18,5,Test_erik2,49,erikICli,203,477,1,+,0
3/19/24,17:13:40,18,5,Test_erik2,50,erikICli,203,448,1,+,0
3/19/24,17:13:40,18,5,Test_erik2,51,erikCOli,203,365,1,+,0
3/19/24,17:13:40,18,5,Test_erik2,52,erikCOre,205,421,1,+,0
3/19/24,17:13:40,18,5,Test_erik2,53,erikCOli,203,418,1,+,0
3/19/24,17:13:40,18,5,Test_erik2,54,erikICre,205,504,1,+,0
3/19/24,17:13:40,18,5,Test_erik2,55,erikICli,203,570,1,+,0
3/19/24,17:13:40,18,5,Test_erik2,56,erikICre,205,545,1,+,0
3/19/24,17:13:40,18,5,Test_erik2,57,erikCOli,203,473,1,+,0
3/19/24,17:13:40,18,5,Test_erik2,58,erikICre,205,548,1,+,0
3/19/24,17:13:40,18,5,Test_erik2,59,erikCOre,205,524,1,+,0
3/19/24,17:13:40,18,5,Test_erik2,60,erikCOli,203,469,1,+,0
3/19/24,17:13:40,18,5,Test_erik2,61,erikICre,205,512,1,+,0
3/19/24,17:13:40,18,5,Test_erik2,62,erikICre,205,490,1,+,0
3/19/24,17:13:40,18,5,Test_erik2,63,erikICre,205,549,1,+,0
3/19/24,17:13:40,18,5,Test_erik2,64,erikICre,205,477,1,+,0
3/19/24,17:13:40,18,5,Test_erik2,65,erikCOre,205,400,1,+,0
3/19/24,17:13:40,18,5,Test_erik2,66,erikICre,205,510,1,+,0
3/19/24,17:13:40,18,5,Test_erik2,67,erikCOli,203,408,1,+,0
3/19/24,17:13:40,18,5,Test_erik2,68,erikICli,203,478,1,+,0
3/19/24,17:13:40,18,5,Test_erik2,69,erikCOli,203,409,1,+,0
3/19/24,17:13:40,18,5,Test_erik2,70,erikICre,205,470,1,+,0
3/19/24,17:13:40,18,5,Test_erik2,71,erikCOli,203,377,1,+,0
3/19/24,17:13:40,18,5,Test_erik2,72,erikICli,203,456,1,+,0
3/19/24,17:13:40,18,5,Test_erik2,73,erikCOre,205,404,1,+,0
3/19/24,17:13:40,18,5,Test_erik2,74,erikCOre,205,370,1,+,0
3/19/24,17:13:40,18,5,Test_erik2,75,erikCOre,205,385,1,+,0
3/19/24,17:13:40,18,5,Test_erik2,76,erikCOre,205,384,1,+,0
3/19/24,17:13:40,18,5,Test_erik2,77,erikICli,203,504,1,+,0
3/19/24,17:13:40,18,5,Test_erik2,78,erikICre,205,481,1,+,0
3/19/24,17:13:40,18,5,Test_erik2,79,erikICre,205,444,1,+,0
3/19/24,17:13:40,18,5,Test_erik2,80,erikICli,203,488,1,+,0
3/19/24,17:13:40,18,6,SM2Test_Abr,1,SM2_Abr1,Plane,11865,0,Cash,0
3/19/24,17:13:40,18,6,SM2Test_Abr,2,SM2_Abr2,Spinach,6132,1,Cello,0
3/19/24,17:13:40,18,6,SM2Test_Abr,3,SM2_Abr3,Duck,4574,1,Chip,0
3/19/24,17:13:40,18,6,SM2Test_Abr,4,SM2_Abr4,Kit,6889,0,Glass,0
3/19/24,17:13:40,18,6,SM2Test_Abr,5,SM2_Abr5,Radio,6726,1,Flower,0
3/19/24,17:13:40,18,6,SM2Test_Abr,6,SM2_Abr6,Cant,13340,0,Tuna,0
3/19/24,17:13:40,18,6,SM2Test_Abr,7,SM2_Abr7,Seam,7448,0,Armband,0
3/19/24,17:13:40,18,6,SM2Test_Abr,8,SM2_Abr8,Chair,15374,0,Horse,0
3/19/24,17:13:40,18,6,SM2Test_Abr,9,SM2_Abr9,Kitchen,7916,1,Cabbage,0
3/19/24,17:13:40,18,6,SM2Test_Abr,10,SM2_Abr10,Armor,5267,0,Wing,0
3/19/24,17:13:40,18,6,SM2Test_Abr,11,SM2_Abr11,Guitar,7836,0,Diner,0
3/19/24,17:13:40,18,6,SM2Test_Abr,12,SM2_Abr12,Member,16495,0,Brain,0
3/19/24,17:13:40,18,6,SM2Test_Abr,13,SM2_Abr13,Dairy,4255,0,Stream,0
3/19/24,17:13:40,18,6,SM2Test_Abr,14,SM2_Abr14,Pepper,25124,0,Stage,0
3/19/24,17:13:40,18,6,SM2Test_Abr,15,SM2_Abr15,Snow,3358,0,Pumpkin,0
3/19/24,17:13:40,18,6,SM2Test_Abr,16,SM2_Abr16,Bond,5620,0,Airplane,0
3/19/24,17:13:40,18,6,SM2Test_Abr,17,SM2_Abr17,Glitter,10277,0,Goldfish,0
3/19/24,17:13:40,18,6,SM2Test_Abr,18,SM2_Abr18,Party,7098,0,River,0
3/19/24,17:13:40,18,6,SM2Test_Abr,19,SM2_Abr19,Liar,7429,0,Piano,0
3/19/24,17:13:40,18,6,SM2Test_Abr,20,SM2_Abr20,Flow,4911,0,Garden,0
3/20/24,17:06:45,4,1,SM2Practice,1,achtung,0,1700,0,Attention!,0
3/20/24,17:06:45,4,1,SM2Practice,2,SM2_P_T1,0,2800,0,Photo,0
3/20/24,17:06:45,4,1,SM2Practice,3,SM2_P_T2,0,2800,0,Sign,0
3/20/24,17:06:45,4,1,SM2Practice,4,SM2_P_T3,0,2800,0,Box,0
3/20/24,17:06:45,4,2,SM2Practice_Abr,1,SM2_P_Abr1,sign,4014,1,Floor,0
3/20/24,17:06:45,4,2,SM2Practice_Abr,2,SM2_P_Abr2,pen,4513,0,Box,0
3/20/24,17:06:45,4,2,SM2Practice_Abr,3,SM2_P_Abr3,pen,1492,1,Photo,0
3/20/24,17:06:45,4,3,SM2Test,1,achtung,0,1700,0,Attention!,0
3/20/24,17:06:45,4,3,SM2Test,2,SM2_T1,0,2800,0,Pepper,0
3/20/24,17:06:45,4,3,SM2Test,3,SM2_T2,0,2800,0,Glove,0
3/20/24,17:06:45,4,3,SM2Test,4,SM2_T3,0,2800,0,Straw,0
3/20/24,17:06:45,4,3,SM2Test,5,SM2_T4,0,2800,0,Mountains,0
3/20/24,17:06:45,4,3,SM2Test,6,SM2_T5,0,2800,0,Pencil,0
3/20/24,17:06:45,4,3,SM2Test,7,SM2_T6,0,2800,0,Wing,0
3/20/24,17:06:45,4,3,SM2Test,8,SM2_T7,0,2800,0,Cabbage,0
3/20/24,17:06:45,4,3,SM2Test,9,SM2_T8,0,2800,0,Piano,0
3/20/24,17:06:45,4,3,SM2Test,10,SM2_T9,0,2800,0,Brain,0
3/20/24,17:06:45,4,3,SM2Test,11,SM2_T10,0,2800,0,Horse,0
3/20/24,17:06:45,4,3,SM2Test,12,SM2_T11,0,2800,0,Shed,0
3/20/24,17:06:45,4,3,SM2Test,13,SM2_T12,0,2800,0,Pumpkin,0
3/20/24,17:06:45,4,3,SM2Test,14,SM2_T13,0,2800,0,Cash,0
3/20/24,17:06:45,4,3,SM2Test,15,SM2_T14,0,2800,0,Cello,0
3/20/24,17:06:45,4,3,SM2Test,16,SM2_T15,0,2800,0,Glass,0
3/20/24,17:06:45,4,3,SM2Test,17,SM2_T16,0,2800,0,Flower,0
3/20/24,17:06:45,4,3,SM2Test,18,SM2_T17,0,2800,0,Coast,0
3/20/24,17:06:45,4,3,SM2Test,19,SM2_T18,0,2800,0,Cream,0
3/20/24,17:06:45,4,3,SM2Test,20,SM2_T19,0,2800,0,Poker,0
3/20/24,17:06:45,4,3,SM2Test,21,SM2_T20,0,2800,0,Duck,0
3/20/24,17:06:45,4,4,Pract_erik2,1,erikICre,205,5115,1,+,0
3/20/24,17:06:45,4,4,Pract_erik2,2,erikCOli,203,2122,1,+,0
3/20/24,17:06:45,4,4,Pract_erik2,3,erikCOre,205,824,1,+,0
3/20/24,17:06:45,4,4,Pract_erik2,4,erikICli,203,548,1,+,0
3/20/24,17:06:45,4,4,Pract_erik2,5,erikCOli,203,2045,1,+,0
3/20/24,17:06:45,4,4,Pract_erik2,6,erikCOli,203,678,1,+,0
3/20/24,17:06:45,4,4,Pract_erik2,7,erikICre,205,808,1,+,0
3/20/24,17:06:45,4,4,Pract_erik2,8,erikICli,203,717,1,+,0
3/20/24,17:06:45,4,4,Pract_erik2,9,erikCOre,205,959,1,+,0
3/20/24,17:06:45,4,4,Pract_erik2,10,erikICli,203,773,1,+,0
3/20/24,17:06:45,4,4,Pract_erik2,11,erikCOre,203,1171,0,+,0
3/20/24,17:06:45,4,4,Pract_erik2,12,erikICre,205,2425,1,+,0
3/20/24,17:06:45,4,5,Test_erik2,1,erikCOre,205,3991,1,+,0
3/20/24,17:06:45,4,5,Test_erik2,2,erikICli,203,542,1,+,0
3/20/24,17:06:45,4,5,Test_erik2,3,erikICre,205,902,1,+,0
3/20/24,17:06:45,4,5,Test_erik2,4,erikICli,203,816,1,+,0
3/20/24,17:06:45,4,5,Test_erik2,5,erikICli,203,629,1,+,0
3/20/24,17:06:45,4,5,Test_erik2,6,erikICli,203,674,1,+,0
3/20/24,17:06:45,4,5,Test_erik2,7,erikCOli,203,436,1,+,0
3/20/24,17:06:45,4,5,Test_erik2,8,erikCOre,205,353,1,+,0
3/20/24,17:06:45,4,5,Test_erik2,9,erikCOli,203,473,1,+,0
3/20/24,17:06:45,4,5,Test_erik2,10,erikICli,203,372,1,+,0
3/20/24,17:06:45,4,5,Test_erik2,11,erikICre,205,396,1,+,0
3/20/24,17:06:45,4,5,Test_erik2,12,erikICli,203,433,1,+,0
3/20/24,17:06:45,4,5,Test_erik2,13,erikCOre,205,350,1,+,0
3/20/24,17:06:45,4,5,Test_erik2,14,erikICre,203,415,0,+,0
3/20/24,17:06:45,4,5,Test_erik2,15,erikCOre,205,613,1,+,0
3/20/24,17:06:45,4,5,Test_erik2,16,erikCOre,205,378,1,+,0
3/20/24,17:06:45,4,5,Test_erik2,17,erikICre,205,450,1,+,0
3/20/24,17:06:45,4,5,Test_erik2,18,erikCOli,203,422,1,+,0
3/20/24,17:06:45,4,5,Test_erik2,19,erikCOre,205,939,1,+,0
3/20/24,17:06:45,4,5,Test_erik2,20,erikICre,205,483,1,+,0
3/20/24,17:06:45,4,5,Test_erik2,21,erikICre,205,478,1,+,0
3/20/24,17:06:45,4,5,Test_erik2,22,erikCOli,203,472,1,+,0
3/20/24,17:06:45,4,5,Test_erik2,23,erikCOre,203,475,0,+,0
3/20/24,17:06:45,4,5,Test_erik2,24,erikICli,203,566,1,+,0
3/20/24,17:06:45,4,5,Test_erik2,25,erikICre,205,485,1,+,0
3/20/24,17:06:45,4,5,Test_erik2,26,erikCOre,205,433,1,+,0
3/20/24,17:06:45,4,5,Test_erik2,27,erikICre,205,494,1,+,0
3/20/24,17:06:45,4,5,Test_erik2,28,erikCOre,205,440,1,+,0
3/20/24,17:06:45,4,5,Test_erik2,29,erikCOre,205,477,1,+,0
3/20/24,17:06:45,4,5,Test_erik2,30,erikCOli,203,472,1,+,0
3/20/24,17:06:45,4,5,Test_erik2,31,erikCOre,205,419,1,+,0
3/20/24,17:06:45,4,5,Test_erik2,32,erikICli,203,664,1,+,0
3/20/24,17:06:45,4,5,Test_erik2,33,erikCOli,203,539,1,+,0
3/20/24,17:06:45,4,5,Test_erik2,34,erikICli,203,459,1,+,0
3/20/24,17:06:45,4,5,Test_erik2,35,erikCOli,203,479,1,+,0
3/20/24,17:06:45,4,5,Test_erik2,36,erikCOre,205,442,1,+,0
3/20/24,17:06:45,4,5,Test_erik2,37,erikCOre,205,422,1,+,0
3/20/24,17:06:45,4,5,Test_erik2,38,erikICli,203,476,1,+,0
3/20/24,17:06:45,4,5,Test_erik2,39,erikCOre,205,711,1,+,0
3/20/24,17:06:45,4,5,Test_erik2,40,erikICli,203,656,1,+,0
3/20/24,17:06:45,4,5,Test_erik2,41,erikCOli,203,643,1,+,0
3/20/24,17:06:45,4,5,Test_erik2,42,erikCOre,205,431,1,+,0
3/20/24,17:06:45,4,5,Test_erik2,43,erikCOre,205,563,1,+,0
3/20/24,17:06:45,4,5,Test_erik2,44,erikICli,203,611,1,+,0
3/20/24,17:06:45,4,5,Test_erik2,45,erikICli,205,432,0,+,0
3/20/24,17:06:45,4,5,Test_erik2,46,erikCOre,203,446,0,+,0
3/20/24,17:06:45,4,5,Test_erik2,47,erikCOre,205,674,1,+,0
3/20/24,17:06:45,4,5,Test_erik2,48,erikICli,203,517,1,+,0
3/20/24,17:06:45,4,5,Test_erik2,49,erikICli,203,582,1,+,0
3/20/24,17:06:45,4,5,Test_erik2,50,erikICli,203,533,1,+,0
3/20/24,17:06:45,4,5,Test_erik2,51,erikCOli,203,518,1,+,0
3/20/24,17:06:45,4,5,Test_erik2,52,erikCOre,205,544,1,+,0
3/20/24,17:06:45,4,5,Test_erik2,53,erikCOli,203,415,1,+,0
3/20/24,17:06:45,4,5,Test_erik2,54,erikICre,205,429,1,+,0
3/20/24,17:06:45,4,5,Test_erik2,55,erikICli,203,594,1,+,0
3/20/24,17:06:45,4,5,Test_erik2,56,erikICre,205,672,1,+,0
3/20/24,17:06:45,4,5,Test_erik2,57,erikCOli,203,1579,1,+,0
3/20/24,17:06:45,4,5,Test_erik2,58,erikICre,205,888,1,+,0
3/20/24,17:06:45,4,5,Test_erik2,59,erikCOre,205,449,1,+,0
3/20/24,17:06:45,4,5,Test_erik2,60,erikCOli,203,366,1,+,0
3/20/24,17:06:45,4,5,Test_erik2,61,erikICre,205,382,1,+,0
3/20/24,17:06:45,4,5,Test_erik2,62,erikICre,205,380,1,+,0
3/20/24,17:06:45,4,5,Test_erik2,63,erikICre,205,331,1,+,0
3/20/24,17:06:45,4,5,Test_erik2,64,erikICre,205,412,1,+,0
3/20/24,17:06:45,4,5,Test_erik2,65,erikCOre,203,338,0,+,0
3/20/24,17:06:45,4,5,Test_erik2,66,erikICre,205,531,1,+,0
3/20/24,17:06:45,4,5,Test_erik2,67,erikCOli,203,388,1,+,0
3/20/24,17:06:45,4,5,Test_erik2,68,erikICli,205,427,0,+,0
3/20/24,17:06:45,4,5,Test_erik2,69,erikCOli,203,376,1,+,0
3/20/24,17:06:45,4,5,Test_erik2,70,erikICre,205,455,1,+,0
3/20/24,17:06:45,4,5,Test_erik2,71,erikCOli,203,435,1,+,0
3/20/24,17:06:45,4,5,Test_erik2,72,erikICli,203,488,1,+,0
3/20/24,17:06:45,4,5,Test_erik2,73,erikCOre,205,417,1,+,0
3/20/24,17:06:45,4,5,Test_erik2,74,erikCOre,205,487,1,+,0
3/20/24,17:06:45,4,5,Test_erik2,75,erikCOre,205,369,1,+,0
3/20/24,17:06:45,4,5,Test_erik2,76,erikCOre,205,361,1,+,0
3/20/24,17:06:45,4,5,Test_erik2,77,erikICli,203,425,1,+,0
3/20/24,17:06:45,4,5,Test_erik2,78,erikICre,205,422,1,+,0
3/20/24,17:06:45,4,5,Test_erik2,79,erikICre,205,555,1,+,0
3/20/24,17:06:45,4,5,Test_erik2,80,erikICli,203,419,1,+,0
3/20/24,17:06:45,4,6,SM2Test_Abr,1,SM2_Abr1,body,4326,1,Cash,0
3/20/24,17:06:45,4,6,SM2Test_Abr,2,SM2_Abr2,spinach,7240,1,Cello,0
3/20/24,17:06:45,4,6,SM2Test_Abr,3,SM2_Abr3,balloon,4971,0,Chip,0
3/20/24,17:06:45,4,6,SM2Test_Abr,4,SM2_Abr4,bamboo,2130,1,Glass,0
3/20/24,17:06:45,4,6,SM2Test_Abr,5,SM2_Abr5,something,4798,0,Flower,0
3/20/24,17:06:45,4,6,SM2Test_Abr,6,SM2_Abr6,idk,2097,0,Tuna,0
3/20/24,17:06:45,4,6,SM2Test_Abr,7,SM2_Abr7,Cello,5295,0,Armband,0
3/20/24,17:06:45,4,6,SM2Test_Abr,8,SM2_Abr8,Cup,2166,1,Horse,0
3/20/24,17:06:45,4,6,SM2Test_Abr,9,SM2_Abr9,Shop,8832,0,Cabbage,0
3/20/24,17:06:45,4,6,SM2Test_Abr,10,SM2_Abr10,Armband,3962,0,Wing,0
3/20/24,17:06:45,4,6,SM2Test_Abr,11,SM2_Abr11,Coast,2826,1,Diner,0
3/20/24,17:06:45,4,6,SM2Test_Abr,12,SM2_Abr12,Museum,18096,0,Brain,0
3/20/24,17:06:45,4,6,SM2Test_Abr,13,SM2_Abr13,O,3605,0,Stream,0
3/20/24,17:06:45,4,6,SM2Test_Abr,14,SM2_Abr14,Concert,3057,0,Stage,0
3/20/24,17:06:45,4,6,SM2Test_Abr,15,SM2_Abr15,Arch,9193,0,Pumpkin,0
3/20/24,17:06:45,4,6,SM2Test_Abr,16,SM2_Abr16,Poop,4256,0,Airplane,0
3/20/24,17:06:45,4,6,SM2Test_Abr,17,SM2_Abr17,Stray,7894,0,Goldfish,0
3/20/24,17:06:45,4,6,SM2Test_Abr,18,SM2_Abr18,Long,2167,0,River,0
3/20/24,17:06:45,4,6,SM2Test_Abr,19,SM2_Abr19,Okay,9530,0,Piano,0
3/20/24,17:06:45,4,6,SM2Test_Abr,20,SM2_Abr20,Pumpkin,6766,0,Garden,0
3/21/24,13:41:48,14,1,SM2Practice,1,achtung,0,1700,0,Attention!,0
3/21/24,13:41:48,14,1,SM2Practice,2,SM2_P_T1,0,2800,0,Photo,0
3/21/24,13:41:48,14,1,SM2Practice,3,SM2_P_T2,0,2800,0,Sign,0
3/21/24,13:41:48,14,1,SM2Practice,4,SM2_P_T3,0,2800,0,Box,0
3/21/24,13:41:48,14,2,SM2Practice_Abr,1,SM2_P_Abr1,box,7297,0,Floor,0
3/21/24,13:41:48,14,2,SM2Practice_Abr,2,SM2_P_Abr2,floor,12713,0,Box,0
3/21/24,13:41:48,14,2,SM2Practice_Abr,3,SM2_P_Abr3,pen,2932,1,Photo,0
3/21/24,13:41:48,14,3,SM2Test,1,achtung,0,1700,0,Attention!,0
3/21/24,13:41:48,14,3,SM2Test,2,SM2_T1,0,2800,0,Pepper,0
3/21/24,13:41:48,14,3,SM2Test,3,SM2_T2,0,2800,0,Glove,0
3/21/24,13:41:48,14,3,SM2Test,4,SM2_T3,0,2800,0,Straw,0
3/21/24,13:41:48,14,3,SM2Test,5,SM2_T4,0,2800,0,Mountains,0
3/21/24,13:41:48,14,3,SM2Test,6,SM2_T5,0,2800,0,Pencil,0
3/21/24,13:41:48,14,3,SM2Test,7,SM2_T6,0,2800,0,Wing,0
3/21/24,13:41:48,14,3,SM2Test,8,SM2_T7,0,2800,0,Cabbage,0
3/21/24,13:41:48,14,3,SM2Test,9,SM2_T8,0,2800,0,Piano,0
3/21/24,13:41:48,14,3,SM2Test,10,SM2_T9,0,2800,0,Brain,0
3/21/24,13:41:48,14,3,SM2Test,11,SM2_T10,0,2800,0,Horse,0
3/21/24,13:41:48,14,3,SM2Test,12,SM2_T11,0,2800,0,Shed,0
3/21/24,13:41:48,14,3,SM2Test,13,SM2_T12,0,2800,0,Pumpkin,0
3/21/24,13:41:48,14,3,SM2Test,14,SM2_T13,0,2800,0,Cash,0
3/21/24,13:41:48,14,3,SM2Test,15,SM2_T14,0,2800,0,Cello,0
3/21/24,13:41:48,14,3,SM2Test,16,SM2_T15,0,2800,0,Glass,0
3/21/24,13:41:48,14,3,SM2Test,17,SM2_T16,0,2800,0,Flower,0
3/21/24,13:41:48,14,3,SM2Test,18,SM2_T17,0,2800,0,Coast,0
3/21/24,13:41:48,14,3,SM2Test,19,SM2_T18,0,2800,0,Cream,0
3/21/24,13:41:48,14,3,SM2Test,20,SM2_T19,0,2800,0,Poker,0
3/21/24,13:41:48,14,3,SM2Test,21,SM2_T20,0,2800,0,Duck,0
3/21/24,13:41:48,14,4,Pract_erik2,1,erikCOre,203,961,0,+,0
3/21/24,13:41:48,14,4,Pract_erik2,2,erikCOli,203,1935,1,+,0
3/21/24,13:41:48,14,4,Pract_erik2,3,erikICre,205,693,1,+,0
3/21/24,13:41:48,14,4,Pract_erik2,4,erikCOre,203,726,0,+,0
3/21/24,13:41:48,14,4,Pract_erik2,5,erikCOli,203,727,1,+,0
3/21/24,13:41:48,14,4,Pract_erik2,6,erikCOli,203,615,1,+,0
3/21/24,13:41:48,14,4,Pract_erik2,7,erikCOre,205,541,1,+,0
3/21/24,13:41:48,14,4,Pract_erik2,8,erikICre,205,957,1,+,0
3/21/24,13:41:48,14,4,Pract_erik2,9,erikICli,203,636,1,+,0
3/21/24,13:41:48,14,4,Pract_erik2,10,erikICli,203,656,1,+,0
3/21/24,13:41:48,14,4,Pract_erik2,11,erikICre,205,604,1,+,0
3/21/24,13:41:48,14,4,Pract_erik2,12,erikICli,203,537,1,+,0
3/21/24,13:41:48,14,5,Test_erik2,1,erikCOre,205,637,1,+,0
3/21/24,13:41:48,14,5,Test_erik2,2,erikICli,203,521,1,+,0
3/21/24,13:41:48,14,5,Test_erik2,3,erikICre,205,586,1,+,0
3/21/24,13:41:48,14,5,Test_erik2,4,erikICli,203,745,1,+,0
3/21/24,13:41:48,14,5,Test_erik2,5,erikICli,203,760,1,+,0
3/21/24,13:41:48,14,5,Test_erik2,6,erikICli,203,831,1,+,0
3/21/24,13:41:48,14,5,Test_erik2,7,erikCOli,203,804,1,+,0
3/21/24,13:41:48,14,5,Test_erik2,8,erikCOre,203,680,0,+,0
3/21/24,13:41:48,14,5,Test_erik2,9,erikCOli,205,587,0,+,0
3/21/24,13:41:48,14,5,Test_erik2,10,erikICli,203,769,1,+,0
3/21/24,13:41:48,14,5,Test_erik2,11,erikICre,205,800,1,+,0
3/21/24,13:41:48,14,5,Test_erik2,12,erikICli,203,510,1,+,0
3/21/24,13:41:48,14,5,Test_erik2,13,erikCOre,205,567,1,+,0
3/21/24,13:41:48,14,5,Test_erik2,14,erikICre,205,519,1,+,0
3/21/24,13:41:48,14,5,Test_erik2,15,erikCOre,205,584,1,+,0
3/21/24,13:41:48,14,5,Test_erik2,16,erikCOre,205,503,1,+,0
3/21/24,13:41:48,14,5,Test_erik2,17,erikICre,205,497,1,+,0
3/21/24,13:41:48,14,5,Test_erik2,18,erikCOli,203,483,1,+,0
3/21/24,13:41:48,14,5,Test_erik2,19,erikCOre,205,518,1,+,0
3/21/24,13:41:48,14,5,Test_erik2,20,erikICre,205,544,1,+,0
3/21/24,13:41:48,14,5,Test_erik2,21,erikICre,205,440,1,+,0
3/21/24,13:41:48,14,5,Test_erik2,22,erikCOli,203,484,1,+,0
3/21/24,13:41:48,14,5,Test_erik2,23,erikCOre,205,487,1,+,0
3/21/24,13:41:48,14,5,Test_erik2,24,erikICli,203,578,1,+,0
3/21/24,13:41:48,14,5,Test_erik2,25,erikICre,205,584,1,+,0
3/21/24,13:41:48,14,5,Test_erik2,26,erikCOre,203,503,0,+,0
3/21/24,13:41:48,14,5,Test_erik2,27,erikICre,205,522,1,+,0
3/21/24,13:41:48,14,5,Test_erik2,28,erikCOre,205,594,1,+,0
3/21/24,13:41:48,14,5,Test_erik2,29,erikCOre,205,481,1,+,0
3/21/24,13:41:48,14,5,Test_erik2,30,erikCOli,203,924,1,+,0
3/21/24,13:41:48,14,5,Test_erik2,31,erikCOre,203,531,0,+,0
3/21/24,13:41:48,14,5,Test_erik2,32,erikICli,203,1123,1,+,0
3/21/24,13:41:48,14,5,Test_erik2,33,erikCOli,203,1107,1,+,0
3/21/24,13:41:48,14,5,Test_erik2,34,erikICli,203,787,1,+,0
3/21/24,13:41:48,14,5,Test_erik2,35,erikCOli,203,577,1,+,0
3/21/24,13:41:48,14,5,Test_erik2,36,erikCOre,205,976,1,+,0
3/21/24,13:41:48,14,5,Test_erik2,37,erikCOre,205,574,1,+,0
3/21/24,13:41:48,14,5,Test_erik2,38,erikICli,203,637,1,+,0
3/21/24,13:41:48,14,5,Test_erik2,39,erikCOre,203,1713,0,+,0
3/21/24,13:41:48,14,5,Test_erik2,40,erikICli,203,688,1,+,0
3/21/24,13:41:48,14,5,Test_erik2,41,erikCOli,203,674,1,+,0
3/21/24,13:41:48,14,5,Test_erik2,42,erikCOre,205,677,1,+,0
3/21/24,13:41:48,14,5,Test_erik2,43,erikCOre,205,495,1,+,0
3/21/24,13:41:48,14,5,Test_erik2,44,erikICli,203,514,1,+,0
3/21/24,13:41:48,14,5,Test_erik2,45,erikICli,203,979,1,+,0
3/21/24,13:41:48,14,5,Test_erik2,46,erikCOre,205,553,1,+,0
3/21/24,13:41:48,14,5,Test_erik2,47,erikCOre,205,561,1,+,0
3/21/24,13:41:48,14,5,Test_erik2,48,erikICli,203,961,1,+,0
3/21/24,13:41:48,14,5,Test_erik2,49,erikICli,203,552,1,+,0
3/21/24,13:41:48,14,5,Test_erik2,50,erikICli,203,528,1,+,0
3/21/24,13:41:48,14,5,Test_erik2,51,erikCOli,203,720,1,+,0
3/21/24,13:41:48,14,5,Test_erik2,52,erikCOre,205,433,1,+,0
3/21/24,13:41:48,14,5,Test_erik2,53,erikCOli,203,686,1,+,0
3/21/24,13:41:48,14,5,Test_erik2,54,erikICre,205,552,1,+,0
3/21/24,13:41:48,14,5,Test_erik2,55,erikICli,203,537,1,+,0
3/21/24,13:41:48,14,5,Test_erik2,56,erikICre,205,713,1,+,0
3/21/24,13:41:48,14,5,Test_erik2,57,erikCOli,203,546,1,+,0
3/21/24,13:41:48,14,5,Test_erik2,58,erikICre,205,730,1,+,0
3/21/24,13:41:48,14,5,Test_erik2,59,erikCOre,205,515,1,+,0
3/21/24,13:41:48,14,5,Test_erik2,60,erikCOli,203,524,1,+,0
3/21/24,13:41:48,14,5,Test_erik2,61,erikICre,205,773,1,+,0
3/21/24,13:41:48,14,5,Test_erik2,62,erikICre,205,548,1,+,0
3/21/24,13:41:48,14,5,Test_erik2,63,erikICre,205,588,1,+,0
3/21/24,13:41:48,14,5,Test_erik2,64,erikICre,205,490,1,+,0
3/21/24,13:41:48,14,5,Test_erik2,65,erikCOre,205,468,1,+,0
3/21/24,13:41:48,14,5,Test_erik2,66,erikICre,205,680,1,+,0
3/21/24,13:41:48,14,5,Test_erik2,67,erikCOli,205,866,0,+,0
3/21/24,13:41:48,14,5,Test_erik2,68,erikICli,203,677,1,+,0
3/21/24,13:41:48,14,5,Test_erik2,69,erikCOli,203,544,1,+,0
3/21/24,13:41:48,14,5,Test_erik2,70,erikICre,205,664,1,+,0
3/21/24,13:41:48,14,5,Test_erik2,71,erikCOli,203,507,1,+,0
3/21/24,13:41:48,14,5,Test_erik2,72,erikICli,203,533,1,+,0
3/21/24,13:41:48,14,5,Test_erik2,73,erikCOre,205,518,1,+,0
3/21/24,13:41:48,14,5,Test_erik2,74,erikCOre,205,454,1,+,0
3/21/24,13:41:48,14,5,Test_erik2,75,erikCOre,205,386,1,+,0
3/21/24,13:41:48,14,5,Test_erik2,76,erikCOre,205,577,1,+,0
3/21/24,13:41:48,14,5,Test_erik2,77,erikICli,203,479,1,+,0
3/21/24,13:41:48,14,5,Test_erik2,78,erikICre,205,834,1,+,0
3/21/24,13:41:48,14,5,Test_erik2,79,erikICre,205,503,1,+,0
3/21/24,13:41:48,14,5,Test_erik2,80,erikICli,203,553,1,+,0
3/21/24,13:41:48,14,6,SM2Test_Abr,1,SM2_Abr1,bhox,6999,0,Cash,0
3/21/24,13:41:48,14,6,SM2Test_Abr,2,SM2_Abr2,airplane,14282,0,Cello,0
3/21/24,13:41:48,14,6,SM2Test_Abr,3,SM2_Abr3,crown,8662,0,Chip,0
3/21/24,13:41:48,14,6,SM2Test_Abr,4,SM2_Abr4,window,6007,0,Glass,0
3/21/24,13:41:48,14,6,SM2Test_Abr,5,SM2_Abr5,pen,10012,0,Flower,0
3/21/24,13:41:48,14,6,SM2Test_Abr,6,SM2_Abr6,celio,10791,0,Tuna,0
3/21/24,13:41:48,14,6,SM2Test_Abr,7,SM2_Abr7,flower,10953,0,Armband,0
3/21/24,13:41:48,14,6,SM2Test_Abr,8,SM2_Abr8,pen,2571,0,Horse,0
3/21/24,13:41:48,14,6,SM2Test_Abr,9,SM2_Abr9,window,8691,0,Cabbage,0
3/21/24,13:41:48,14,6,SM2Test_Abr,10,SM2_Abr10,airplane,5891,0,Wing,0
3/21/24,13:41:48,14,6,SM2Test_Abr,11,SM2_Abr11,den,27271,0,Diner,0
3/21/24,13:41:48,14,6,SM2Test_Abr,12,SM2_Abr12,plane,28730,0,Brain,0
3/21/24,13:41:48,14,6,SM2Test_Abr,13,SM2_Abr13,sky,8624,0,Stream,0
3/21/24,13:41:48,14,6,SM2Test_Abr,14,SM2_Abr14,cabbage,10592,0,Stage,0
3/21/24,13:41:48,14,6,SM2Test_Abr,15,SM2_Abr15,seed,2723,0,Pumpkin,0
3/21/24,13:41:48,14,6,SM2Test_Abr,16,SM2_Abr16,window,9581,0,Airplane,0
3/21/24,13:41:48,14,6,SM2Test_Abr,17,SM2_Abr17,goal,6872,0,Goldfish,0
3/21/24,13:41:48,14,6,SM2Test_Abr,18,SM2_Abr18,rain,4924,0,River,0
3/21/24,13:41:48,14,6,SM2Test_Abr,19,SM2_Abr19,pen,4008,0,Piano,0
3/21/24,13:41:48,14,6,SM2Test_Abr,20,SM2_Abr20,flower,2784,0,Garden,0
3/21/24,14:55:58,23,1,SM2Practice,1,achtung,0,1700,0,Attention!,0
3/21/24,14:55:58,23,1,SM2Practice,2,SM2_P_T1,0,2800,0,Photo,0
3/21/24,14:55:58,23,1,SM2Practice,3,SM2_P_T2,0,2800,0,Sign,0
3/21/24,14:55:58,23,1,SM2Practice,4,SM2_P_T3,0,2800,0,Box,0
3/21/24,14:55:58,23,2,SM2Practice_Abr,1,SM2_P_Abr1,sign,10300,1,Floor,0
3/21/24,14:55:58,23,2,SM2Practice_Abr,2,SM2_P_Abr2,board,5135,1,Box,0
3/21/24,14:55:58,23,2,SM2Practice_Abr,3,SM2_P_Abr3,pen,2649,1,Photo,0
3/21/24,14:55:58,23,3,SM2Test,1,achtung,0,1700,0,Attention!,0
3/21/24,14:55:58,23,3,SM2Test,2,SM2_T1,0,2800,0,Pepper,0
3/21/24,14:55:58,23,3,SM2Test,3,SM2_T2,0,2800,0,Glove,0
3/21/24,14:55:58,23,3,SM2Test,4,SM2_T3,0,2800,0,Straw,0
3/21/24,14:55:58,23,3,SM2Test,5,SM2_T4,0,2800,0,Mountains,0
3/21/24,14:55:58,23,3,SM2Test,6,SM2_T5,0,2800,0,Pencil,0
3/21/24,14:55:58,23,3,SM2Test,7,SM2_T6,0,2800,0,Wing,0
3/21/24,14:55:58,23,3,SM2Test,8,SM2_T7,0,2800,0,Cabbage,0
3/21/24,14:55:58,23,3,SM2Test,9,SM2_T8,0,2800,0,Piano,0
3/21/24,14:55:58,23,3,SM2Test,10,SM2_T9,0,2800,0,Brain,0
3/21/24,14:55:58,23,3,SM2Test,11,SM2_T10,0,2800,0,Horse,0
3/21/24,14:55:58,23,3,SM2Test,12,SM2_T11,0,2800,0,Shed,0
3/21/24,14:55:58,23,3,SM2Test,13,SM2_T12,0,2800,0,Pumpkin,0
3/21/24,14:55:58,23,3,SM2Test,14,SM2_T13,0,2800,0,Cash,0
3/21/24,14:55:58,23,3,SM2Test,15,SM2_T14,0,2800,0,Cello,0
3/21/24,14:55:58,23,3,SM2Test,16,SM2_T15,0,2800,0,Glass,0
3/21/24,14:55:58,23,3,SM2Test,17,SM2_T16,0,2800,0,Flower,0
3/21/24,14:55:58,23,3,SM2Test,18,SM2_T17,0,2800,0,Coast,0
3/21/24,14:55:58,23,3,SM2Test,19,SM2_T18,0,2800,0,Cream,0
3/21/24,14:55:58,23,3,SM2Test,20,SM2_T19,0,2800,0,Poker,0
3/21/24,14:55:58,23,3,SM2Test,21,SM2_T20,0,2800,0,Duck,0
3/21/24,14:55:58,23,4,Pract_erik2,1,erikCOre,205,1470,1,+,0
3/21/24,14:55:58,23,4,Pract_erik2,2,erikCOli,203,887,1,+,0
3/21/24,14:55:58,23,4,Pract_erik2,3,erikICre,205,1033,1,+,0
3/21/24,14:55:58,23,4,Pract_erik2,4,erikCOli,203,605,1,+,0
3/21/24,14:55:58,23,4,Pract_erik2,5,erikICre,205,874,1,+,0
3/21/24,14:55:58,23,4,Pract_erik2,6,erikCOre,205,476,1,+,0
3/21/24,14:55:58,23,4,Pract_erik2,7,erikCOre,205,487,1,+,0
3/21/24,14:55:58,23,4,Pract_erik2,8,erikICli,203,1842,1,+,0
3/21/24,14:55:58,23,4,Pract_erik2,9,erikCOli,203,451,1,+,0
3/21/24,14:55:58,23,4,Pract_erik2,10,erikICli,203,655,1,+,0
3/21/24,14:55:58,23,4,Pract_erik2,11,erikICli,203,547,1,+,0
3/21/24,14:55:58,23,4,Pract_erik2,12,erikICre,203,411,0,+,0
3/21/24,14:55:58,23,5,Test_erik2,1,erikCOre,205,1146,1,+,0
3/21/24,14:55:58,23,5,Test_erik2,2,erikICli,203,897,1,+,0
3/21/24,14:55:58,23,5,Test_erik2,3,erikICre,205,754,1,+,0
3/21/24,14:55:58,23,5,Test_erik2,4,erikICli,203,657,1,+,0
3/21/24,14:55:58,23,5,Test_erik2,5,erikICli,203,653,1,+,0
3/21/24,14:55:58,23,5,Test_erik2,6,erikICli,203,568,1,+,0
3/21/24,14:55:58,23,5,Test_erik2,7,erikCOli,203,527,1,+,0
3/21/24,14:55:58,23,5,Test_erik2,8,erikCOre,205,520,1,+,0
3/21/24,14:55:58,23,5,Test_erik2,9,erikCOli,203,577,1,+,0
3/21/24,14:55:58,23,5,Test_erik2,10,erikICli,203,512,1,+,0
3/21/24,14:55:58,23,5,Test_erik2,11,erikICre,203,449,0,+,0
3/21/24,14:55:58,23,5,Test_erik2,12,erikICli,203,534,1,+,0
3/21/24,14:55:58,23,5,Test_erik2,13,erikCOre,205,367,1,+,0
3/21/24,14:55:58,23,5,Test_erik2,14,erikICre,205,767,1,+,0
3/21/24,14:55:58,23,5,Test_erik2,15,erikCOre,205,350,1,+,0
3/21/24,14:55:58,23,5,Test_erik2,16,erikCOre,205,342,1,+,0
3/21/24,14:55:58,23,5,Test_erik2,17,erikICre,205,607,1,+,0
3/21/24,14:55:58,23,5,Test_erik2,18,erikCOli,203,532,1,+,0
3/21/24,14:55:58,23,5,Test_erik2,19,erikCOre,205,533,1,+,0
3/21/24,14:55:58,23,5,Test_erik2,20,erikICre,205,646,1,+,0
3/21/24,14:55:58,23,5,Test_erik2,21,erikICre,205,626,1,+,0
3/21/24,14:55:58,23,5,Test_erik2,22,erikCOli,203,551,1,+,0
3/21/24,14:55:58,23,5,Test_erik2,23,erikCOre,205,463,1,+,0
3/21/24,14:55:58,23,5,Test_erik2,24,erikICli,203,571,1,+,0
3/21/24,14:55:58,23,5,Test_erik2,25,erikICre,205,777,1,+,0
3/21/24,14:55:58,23,5,Test_erik2,26,erikCOre,205,400,1,+,0
3/21/24,14:55:58,23,5,Test_erik2,27,erikICre,205,510,1,+,0
3/21/24,14:55:58,23,5,Test_erik2,28,erikCOre,205,327,1,+,0
3/21/24,14:55:58,23,5,Test_erik2,29,erikCOre,205,376,1,+,0
3/21/24,14:55:58,23,5,Test_erik2,30,erikCOli,203,439,1,+,0
3/21/24,14:55:58,23,5,Test_erik2,31,erikCOre,205,428,1,+,0
3/21/24,14:55:58,23,5,Test_erik2,32,erikICli,203,945,1,+,0
3/21/24,14:55:58,23,5,Test_erik2,33,erikCOli,203,416,1,+,0
3/21/24,14:55:58,23,5,Test_erik2,34,erikICli,203,558,1,+,0
3/21/24,14:55:58,23,5,Test_erik2,35,erikCOli,203,398,1,+,0
3/21/24,14:55:58,23,5,Test_erik2,36,erikCOre,205,380,1,+,0
3/21/24,14:55:58,23,5,Test_erik2,37,erikCOre,205,419,1,+,0
3/21/24,14:55:58,23,5,Test_erik2,38,erikICli,205,336,0,+,0
3/21/24,14:55:58,23,5,Test_erik2,39,erikCOre,205,409,1,+,0
3/21/24,14:55:58,23,5,Test_erik2,40,erikICli,203,519,1,+,0
3/21/24,14:55:58,23,5,Test_erik2,41,erikCOli,203,329,1,+,0
3/21/24,14:55:58,23,5,Test_erik2,42,erikCOre,205,498,1,+,0
3/21/24,14:55:58,23,5,Test_erik2,43,erikCOre,205,452,1,+,0
3/21/24,14:55:58,23,5,Test_erik2,44,erikICli,203,577,1,+,0
3/21/24,14:55:58,23,5,Test_erik2,45,erikICli,203,519,1,+,0
3/21/24,14:55:58,23,5,Test_erik2,46,erikCOre,205,545,1,+,0
3/21/24,14:55:58,23,5,Test_erik2,47,erikCOre,205,313,1,+,0
3/21/24,14:55:58,23,5,Test_erik2,48,erikICli,203,579,1,+,0
3/21/24,14:55:58,23,5,Test_erik2,49,erikICli,203,522,1,+,0
3/21/24,14:55:58,23,5,Test_erik2,50,erikICli,203,531,1,+,0
3/21/24,14:55:58,23,5,Test_erik2,51,erikCOli,203,364,1,+,0
3/21/24,14:55:58,23,5,Test_erik2,52,erikCOre,205,500,1,+,0
3/21/24,14:55:58,23,5,Test_erik2,53,erikCOli,205,414,0,+,0
3/21/24,14:55:58,23,5,Test_erik2,54,erikICre,205,1075,1,+,0
3/21/24,14:55:58,23,5,Test_erik2,55,erikICli,203,829,1,+,0
3/21/24,14:55:58,23,5,Test_erik2,56,erikICre,205,649,1,+,0
3/21/24,14:55:58,23,5,Test_erik2,57,erikCOli,203,549,1,+,0
3/21/24,14:55:58,23,5,Test_erik2,58,erikICre,205,845,1,+,0
3/21/24,14:55:58,23,5,Test_erik2,59,erikCOre,205,577,1,+,0
3/21/24,14:55:58,23,5,Test_erik2,60,erikCOli,203,615,1,+,0
3/21/24,14:55:58,23,5,Test_erik2,61,erikICre,205,565,1,+,0
3/21/24,14:55:58,23,5,Test_erik2,62,erikICre,205,612,1,+,0
3/21/24,14:55:58,23,5,Test_erik2,63,erikICre,205,554,1,+,0
3/21/24,14:55:58,23,5,Test_erik2,64,erikICre,205,585,1,+,0
3/21/24,14:55:58,23,5,Test_erik2,65,erikCOre,205,496,1,+,0
3/21/24,14:55:58,23,5,Test_erik2,66,erikICre,205,818,1,+,0
3/21/24,14:55:58,23,5,Test_erik2,67,erikCOli,203,567,1,+,0
3/21/24,14:55:58,23,5,Test_erik2,68,erikICli,203,647,1,+,0
3/21/24,14:55:58,23,5,Test_erik2,69,erikCOli,203,387,1,+,0
3/21/24,14:55:58,23,5,Test_erik2,70,erikICre,205,593,1,+,0
3/21/24,14:55:58,23,5,Test_erik2,71,erikCOli,203,359,1,+,0
3/21/24,14:55:58,23,5,Test_erik2,72,erikICli,205,975,0,+,0
3/21/24,14:55:58,23,5,Test_erik2,73,erikCOre,205,509,1,+,0
3/21/24,14:55:58,23,5,Test_erik2,74,erikCOre,205,334,1,+,0
3/21/24,14:55:58,23,5,Test_erik2,75,erikCOre,205,471,1,+,0
3/21/24,14:55:58,23,5,Test_erik2,76,erikCOre,205,474,1,+,0
3/21/24,14:55:58,23,5,Test_erik2,77,erikICli,203,677,1,+,0
3/21/24,14:55:58,23,5,Test_erik2,78,erikICre,205,640,1,+,0
3/21/24,14:55:58,23,5,Test_erik2,79,erikICre,205,596,1,+,0
3/21/24,14:55:58,23,5,Test_erik2,80,erikICli,205,370,0,+,0
3/21/24,14:55:58,23,6,SM2Test_Abr,1,SM2_Abr1,,9800,0,Cash,0
3/21/24,14:55:58,23,6,SM2Test_Abr,2,SM2_Abr2,lettuce,6084,0,Cello,0
3/21/24,14:55:58,23,6,SM2Test_Abr,3,SM2_Abr3,goldfish,8602,0,Chip,0
3/21/24,14:55:58,23,6,SM2Test_Abr,4,SM2_Abr4,,6345,0,Glass,0
3/21/24,14:55:58,23,6,SM2Test_Abr,5,SM2_Abr5,,5505,0,Flower,0
3/21/24,14:55:58,23,6,SM2Test_Abr,6,SM2_Abr6,,1857,0,Tuna,0
3/21/24,14:55:58,23,6,SM2Test_Abr,7,SM2_Abr7,,4521,0,Armband,0
3/21/24,14:55:58,23,6,SM2Test_Abr,8,SM2_Abr8,,2110,0,Horse,0
3/21/24,14:55:58,23,6,SM2Test_Abr,9,SM2_Abr9,,4147,0,Cabbage,0
3/21/24,14:55:58,23,6,SM2Test_Abr,10,SM2_Abr10,,2761,0,Wing,0
3/21/24,14:55:58,23,6,SM2Test_Abr,11,SM2_Abr11,,2003,0,Diner,0
3/21/24,14:55:58,23,6,SM2Test_Abr,12,SM2_Abr12,,2869,0,Brain,0
3/21/24,14:55:58,23,6,SM2Test_Abr,13,SM2_Abr13,,3064,0,Stream,0
3/21/24,14:55:58,23,6,SM2Test_Abr,14,SM2_Abr14,,2691,0,Stage,0
3/21/24,14:55:58,23,6,SM2Test_Abr,15,SM2_Abr15,,15954,0,Pumpkin,0
3/21/24,14:55:58,23,6,SM2Test_Abr,16,SM2_Abr16,,2208,0,Airplane,0
3/21/24,14:55:58,23,6,SM2Test_Abr,17,SM2_Abr17,,10984,0,Goldfish,0
3/21/24,14:55:58,23,6,SM2Test_Abr,18,SM2_Abr18,,2629,0,River,0
3/21/24,14:55:58,23,6,SM2Test_Abr,19,SM2_Abr19,,3724,0,Piano,0
3/21/24,14:55:58,23,6,SM2Test_Abr,20,SM2_Abr20,,1311,0,Garden,0
3/21/24,16:21:12,24,1,SM2Practice,1,achtung,0,1700,0,Attention!,0
3/21/24,16:21:12,24,1,SM2Practice,2,SM2_P_T1,0,2800,0,Photo,0
3/21/24,16:21:12,24,1,SM2Practice,3,SM2_P_T2,0,2800,0,Sign,0
3/21/24,16:21:12,24,1,SM2Practice,4,SM2_P_T3,0,2800,0,Box,0
3/21/24,16:21:12,24,2,SM2Practice_Abr,1,SM2_P_Abr1,Box,16954,0,Floor,0
3/21/24,16:21:12,24,2,SM2Practice_Abr,2,SM2_P_Abr2,board,11077,1,Box,0
3/21/24,16:21:12,24,2,SM2Practice_Abr,3,SM2_P_Abr3,pen,3828,1,Photo,0
3/21/24,16:21:12,24,3,SM2Test,1,achtung,0,1700,0,Attention!,0
3/21/24,16:21:12,24,3,SM2Test,2,SM2_T1,0,2800,0,Pepper,0
3/21/24,16:21:12,24,3,SM2Test,3,SM2_T2,0,2800,0,Glove,0
3/21/24,16:21:12,24,3,SM2Test,4,SM2_T3,0,2800,0,Straw,0
3/21/24,16:21:12,24,3,SM2Test,5,SM2_T4,0,2800,0,Mountains,0
3/21/24,16:21:12,24,3,SM2Test,6,SM2_T5,0,2800,0,Pencil,0
3/21/24,16:21:12,24,3,SM2Test,7,SM2_T6,0,2800,0,Wing,0
3/21/24,16:21:12,24,3,SM2Test,8,SM2_T7,0,2800,0,Cabbage,0
3/21/24,16:21:12,24,3,SM2Test,9,SM2_T8,0,2800,0,Piano,0
3/21/24,16:21:12,24,3,SM2Test,10,SM2_T9,0,2800,0,Brain,0
3/21/24,16:21:12,24,3,SM2Test,11,SM2_T10,0,2800,0,Horse,0
3/21/24,16:21:12,24,3,SM2Test,12,SM2_T11,0,2800,0,Shed,0
3/21/24,16:21:12,24,3,SM2Test,13,SM2_T12,0,2800,0,Pumpkin,0
3/21/24,16:21:12,24,3,SM2Test,14,SM2_T13,0,2800,0,Cash,0
3/21/24,16:21:12,24,3,SM2Test,15,SM2_T14,0,2800,0,Cello,0
3/21/24,16:21:12,24,3,SM2Test,16,SM2_T15,0,2800,0,Glass,0
3/21/24,16:21:12,24,3,SM2Test,17,SM2_T16,0,2800,0,Flower,0
3/21/24,16:21:12,24,3,SM2Test,18,SM2_T17,0,2800,0,Coast,0
3/21/24,16:21:12,24,3,SM2Test,19,SM2_T18,0,2800,0,Cream,0
3/21/24,16:21:12,24,3,SM2Test,20,SM2_T19,0,2800,0,Poker,0
3/21/24,16:21:12,24,3,SM2Test,21,SM2_T20,0,2800,0,Duck,0
3/21/24,16:21:12,24,4,Pract_erik2,1,erikCOli,205,848,0,+,0
3/21/24,16:21:12,24,4,Pract_erik2,2,erikICre,203,611,0,+,0
3/21/24,16:21:12,24,4,Pract_erik2,3,erikICre,203,2609,0,+,0
3/21/24,16:21:12,24,4,Pract_erik2,4,erikICli,203,5609,1,+,0
3/21/24,16:21:12,24,4,Pract_erik2,5,erikCOre,205,3053,1,+,0
3/21/24,16:21:12,24,4,Pract_erik2,6,erikICre,205,1060,1,+,0
3/21/24,16:21:12,24,4,Pract_erik2,7,erikCOli,203,670,1,+,0
3/21/24,16:21:12,24,4,Pract_erik2,8,erikCOli,203,545,1,+,0
3/21/24,16:21:12,24,4,Pract_erik2,9,erikICli,203,577,1,+,0
3/21/24,16:21:12,24,4,Pract_erik2,10,erikCOre,205,720,1,+,0
3/21/24,16:21:12,24,4,Pract_erik2,11,erikCOre,205,513,1,+,0
3/21/24,16:21:12,24,4,Pract_erik2,12,erikICli,203,522,1,+,0
3/21/24,16:21:12,24,5,Test_erik2,1,erikCOre,205,411,1,+,0
3/21/24,16:21:12,24,5,Test_erik2,2,erikICli,203,449,1,+,0
3/21/24,16:21:12,24,5,Test_erik2,3,erikICre,205,430,1,+,0
3/21/24,16:21:12,24,5,Test_erik2,4,erikICli,203,483,1,+,0
3/21/24,16:21:12,24,5,Test_erik2,5,erikICli,203,446,1,+,0
3/21/24,16:21:12,24,5,Test_erik2,6,erikICli,203,443,1,+,0
3/21/24,16:21:12,24,5,Test_erik2,7,erikCOli,203,431,1,+,0
3/21/24,16:21:12,24,5,Test_erik2,8,erikCOre,205,315,1,+,0
3/21/24,16:21:12,24,5,Test_erik2,9,erikCOli,203,341,1,+,0
3/21/24,16:21:12,24,5,Test_erik2,10,erikICli,203,358,1,+,0
3/21/24,16:21:12,24,5,Test_erik2,11,erikICre,205,438,1,+,0
3/21/24,16:21:12,24,5,Test_erik2,12,erikICli,203,362,1,+,0
3/21/24,16:21:12,24,5,Test_erik2,13,erikCOre,205,322,1,+,0
3/21/24,16:21:12,24,5,Test_erik2,14,erikICre,205,468,1,+,0
3/21/24,16:21:12,24,5,Test_erik2,15,erikCOre,205,367,1,+,0
3/21/24,16:21:12,24,5,Test_erik2,16,erikCOre,205,351,1,+,0
3/21/24,16:21:12,24,5,Test_erik2,17,erikICre,205,472,1,+,0
3/21/24,16:21:12,24,5,Test_erik2,18,erikCOli,203,347,1,+,0
3/21/24,16:21:12,24,5,Test_erik2,19,erikCOre,205,324,1,+,0
3/21/24,16:21:12,24,5,Test_erik2,20,erikICre,205,372,1,+,0
3/21/24,16:21:12,24,5,Test_erik2,21,erikICre,205,396,1,+,0
3/21/24,16:21:12,24,5,Test_erik2,22,erikCOli,203,466,1,+,0
3/21/24,16:21:12,24,5,Test_erik2,23,erikCOre,205,318,1,+,0
3/21/24,16:21:12,24,5,Test_erik2,24,erikICli,205,320,0,+,0
3/21/24,16:21:12,24,5,Test_erik2,25,erikICre,205,385,1,+,0
3/21/24,16:21:12,24,5,Test_erik2,26,erikCOre,205,345,1,+,0
3/21/24,16:21:12,24,5,Test_erik2,27,erikICre,203,329,0,+,0
3/21/24,16:21:12,24,5,Test_erik2,28,erikCOre,205,371,1,+,0
3/21/24,16:21:12,24,5,Test_erik2,29,erikCOre,205,362,1,+,0
3/21/24,16:21:12,24,5,Test_erik2,30,erikCOli,203,345,1,+,0
3/21/24,16:21:12,24,5,Test_erik2,31,erikCOre,205,330,1,+,0
3/21/24,16:21:12,24,5,Test_erik2,32,erikICli,205,307,0,+,0
3/21/24,16:21:12,24,5,Test_erik2,33,erikCOli,203,357,1,+,0
3/21/24,16:21:12,24,5,Test_erik2,34,erikICli,203,453,1,+,0
3/21/24,16:21:12,24,5,Test_erik2,35,erikCOli,203,369,1,+,0
3/21/24,16:21:12,24,5,Test_erik2,36,erikCOre,205,353,1,+,0
3/21/24,16:21:12,24,5,Test_erik2,37,erikCOre,205,321,1,+,0
3/21/24,16:21:12,24,5,Test_erik2,38,erikICli,203,395,1,+,0
3/21/24,16:21:12,24,5,Test_erik2,39,erikCOre,205,361,1,+,0
3/21/24,16:21:12,24,5,Test_erik2,40,erikICli,203,409,1,+,0
3/21/24,16:21:12,24,5,Test_erik2,41,erikCOli,203,358,1,+,0
3/21/24,16:21:12,24,5,Test_erik2,42,erikCOre,205,406,1,+,0
3/21/24,16:21:12,24,5,Test_erik2,43,erikCOre,205,364,1,+,0
3/21/24,16:21:12,24,5,Test_erik2,44,erikICli,203,396,1,+,0
3/21/24,16:21:12,24,5,Test_erik2,45,erikICli,203,451,1,+,0
3/21/24,16:21:12,24,5,Test_erik2,46,erikCOre,205,343,1,+,0
3/21/24,16:21:12,24,5,Test_erik2,47,erikCOre,205,336,1,+,0
3/21/24,16:21:12,24,5,Test_erik2,48,erikICli,203,377,1,+,0
3/21/24,16:21:12,24,5,Test_erik2,49,erikICli,203,400,1,+,0
3/21/24,16:21:12,24,5,Test_erik2,50,erikICli,203,447,1,+,0
3/21/24,16:21:12,24,5,Test_erik2,51,erikCOli,203,371,1,+,0
3/21/24,16:21:12,24,5,Test_erik2,52,erikCOre,205,322,1,+,0
3/21/24,16:21:12,24,5,Test_erik2,53,erikCOli,203,339,1,+,0
3/21/24,16:21:12,24,5,Test_erik2,54,erikICre,205,380,1,+,0
3/21/24,16:21:12,24,5,Test_erik2,55,erikICli,203,347,1,+,0
3/21/24,16:21:12,24,5,Test_erik2,56,erikICre,205,372,1,+,0
3/21/24,16:21:12,24,5,Test_erik2,57,erikCOli,203,355,1,+,0
3/21/24,16:21:12,24,5,Test_erik2,58,erikICre,205,371,1,+,0
3/21/24,16:21:12,24,5,Test_erik2,59,erikCOre,205,370,1,+,0
3/21/24,16:21:12,24,5,Test_erik2,60,erikCOli,203,345,1,+,0
3/21/24,16:21:12,24,5,Test_erik2,61,erikICre,205,394,1,+,0
3/21/24,16:21:12,24,5,Test_erik2,62,erikICre,205,489,1,+,0
3/21/24,16:21:12,24,5,Test_erik2,63,erikICre,205,458,1,+,0
3/21/24,16:21:12,24,5,Test_erik2,64,erikICre,205,470,1,+,0
3/21/24,16:21:12,24,5,Test_erik2,65,erikCOre,205,377,1,+,0
3/21/24,16:21:12,24,5,Test_erik2,66,erikICre,205,448,1,+,0
3/21/24,16:21:12,24,5,Test_erik2,67,erikCOli,203,485,1,+,0
3/21/24,16:21:12,24,5,Test_erik2,68,erikICli,203,456,1,+,0
3/21/24,16:21:12,24,5,Test_erik2,69,erikCOli,203,379,1,+,0
3/21/24,16:21:12,24,5,Test_erik2,70,erikICre,205,363,1,+,0
3/21/24,16:21:12,24,5,Test_erik2,71,erikCOli,203,355,1,+,0
3/21/24,16:21:12,24,5,Test_erik2,72,erikICli,203,435,1,+,0
3/21/24,16:21:12,24,5,Test_erik2,73,erikCOre,205,368,1,+,0
3/21/24,16:21:12,24,5,Test_erik2,74,erikCOre,205,375,1,+,0
3/21/24,16:21:12,24,5,Test_erik2,75,erikCOre,205,342,1,+,0
3/21/24,16:21:12,24,5,Test_erik2,76,erikCOre,205,343,1,+,0
3/21/24,16:21:12,24,5,Test_erik2,77,erikICli,203,407,1,+,0
3/21/24,16:21:12,24,5,Test_erik2,78,erikICre,205,413,1,+,0
3/21/24,16:21:12,24,5,Test_erik2,79,erikICre,205,451,1,+,0
3/21/24,16:21:12,24,5,Test_erik2,80,erikICli,203,456,1,+,0
3/21/24,16:21:12,24,6,SM2Test_Abr,1,SM2_Abr1,Paper,13613,0,Cash,0
3/21/24,16:21:12,24,6,SM2Test_Abr,2,SM2_Abr2,Art,6094,0,Cello,0
3/21/24,16:21:12,24,6,SM2Test_Abr,3,SM2_Abr3,Cookie,7952,0,Chip,0
3/21/24,16:21:12,24,6,SM2Test_Abr,4,SM2_Abr4,green,45893,0,Glass,0
3/21/24,16:21:12,24,6,SM2Test_Abr,5,SM2_Abr5,car,23027,0,Flower,0
3/21/24,16:21:12,24,6,SM2Test_Abr,6,SM2_Abr6,pillow,25673,0,Tuna,0
3/21/24,16:21:12,24,6,SM2Test_Abr,7,SM2_Abr7,mirror,12671,0,Armband,0
3/21/24,16:21:12,24,6,SM2Test_Abr,8,SM2_Abr8,blade,10773,0,Horse,0
3/21/24,16:21:12,24,6,SM2Test_Abr,9,SM2_Abr9,train,91401,0,Cabbage,0
3/21/24,16:21:12,24,6,SM2Test_Abr,10,SM2_Abr10,jar,11472,0,Wing,0
3/21/24,16:21:12,24,6,SM2Test_Abr,11,SM2_Abr11,pig,33687,0,Diner,0
3/21/24,16:21:12,24,6,SM2Test_Abr,12,SM2_Abr12,cloth,7756,0,Brain,0
3/21/24,16:21:12,24,6,SM2Test_Abr,13,SM2_Abr13,horse,63043,0,Stream,0
3/21/24,16:21:12,24,6,SM2Test_Abr,14,SM2_Abr14,red,25122,0,Stage,0
3/21/24,16:21:12,24,6,SM2Test_Abr,15,SM2_Abr15,crown,6027,0,Pumpkin,0
3/21/24,16:21:12,24,6,SM2Test_Abr,16,SM2_Abr16,pepper,3425,1,Airplane,0
3/21/24,16:21:12,24,6,SM2Test_Abr,17,SM2_Abr17,bowl,2753,0,Goldfish,0
3/21/24,16:21:12,24,6,SM2Test_Abr,18,SM2_Abr18,white,38750,0,River,0
3/21/24,16:21:12,24,6,SM2Test_Abr,19,SM2_Abr19,table,3423,0,Piano,0
3/21/24,16:21:12,24,6,SM2Test_Abr,20,SM2_Abr20,cream,4148,1,Garden,0
3/22/24,15:33:56,29,1,SM2Practice,1,achtung,0,1700,0,Attention!,0
3/22/24,15:33:56,29,1,SM2Practice,2,SM2_P_T1,0,2800,0,Photo,0
3/22/24,15:33:56,29,1,SM2Practice,3,SM2_P_T2,0,2800,0,Sign,0
3/22/24,15:33:56,29,1,SM2Practice,4,SM2_P_T3,0,2800,0,Box,0
3/22/24,15:33:56,29,2,SM2Practice_Abr,1,SM2_P_Abr1, floor,34257,0,Floor,0
3/22/24,15:33:56,29,2,SM2Practice_Abr,2,SM2_P_Abr2,box,21200,0,Box,0
3/22/24,15:33:56,29,2,SM2Practice_Abr,3,SM2_P_Abr3,pin,6815,0,Photo,0
3/22/24,15:33:56,29,3,SM2Test,1,achtung,0,1700,0,Attention!,0
3/22/24,15:33:56,29,3,SM2Test,2,SM2_T1,0,2800,0,Pepper,0
3/22/24,15:33:56,29,3,SM2Test,3,SM2_T2,0,2800,0,Glove,0
3/22/24,15:33:56,29,3,SM2Test,4,SM2_T3,0,2800,0,Straw,0
3/22/24,15:33:56,29,3,SM2Test,5,SM2_T4,0,2800,0,Mountains,0
3/22/24,15:33:56,29,3,SM2Test,6,SM2_T5,0,2800,0,Pencil,0
3/22/24,15:33:56,29,3,SM2Test,7,SM2_T6,0,2800,0,Wing,0
3/22/24,15:33:56,29,3,SM2Test,8,SM2_T7,0,2800,0,Cabbage,0
3/22/24,15:33:56,29,3,SM2Test,9,SM2_T8,0,2800,0,Piano,0
3/22/24,15:33:56,29,3,SM2Test,10,SM2_T9,0,2800,0,Brain,0
3/22/24,15:33:56,29,3,SM2Test,11,SM2_T10,0,2800,0,Horse,0
3/22/24,15:33:56,29,3,SM2Test,12,SM2_T11,0,2800,0,Shed,0
3/22/24,15:33:56,29,3,SM2Test,13,SM2_T12,0,2800,0,Pumpkin,0
3/22/24,15:33:56,29,3,SM2Test,14,SM2_T13,0,2800,0,Cash,0
3/22/24,15:33:56,29,3,SM2Test,15,SM2_T14,0,2800,0,Cello,0
3/22/24,15:33:56,29,3,SM2Test,16,SM2_T15,0,2800,0,Glass,0
3/22/24,15:33:56,29,3,SM2Test,17,SM2_T16,0,2800,0,Flower,0
3/22/24,15:33:56,29,3,SM2Test,18,SM2_T17,0,2800,0,Coast,0
3/22/24,15:33:56,29,3,SM2Test,19,SM2_T18,0,2800,0,Cream,0
3/22/24,15:33:56,29,3,SM2Test,20,SM2_T19,0,2800,0,Poker,0
3/22/24,15:33:56,29,3,SM2Test,21,SM2_T20,0,2800,0,Duck,0
3/22/24,15:33:56,29,4,Pract_erik2,1,erikICre,203,14634,0,+,0
3/22/24,15:33:56,29,4,Pract_erik2,2,erikCOli,203,2954,1,+,0
3/22/24,15:33:56,29,4,Pract_erik2,3,erikCOre,205,717,1,+,0
3/22/24,15:33:56,29,4,Pract_erik2,4,erikCOli,203,862,1,+,0
3/22/24,15:33:56,29,4,Pract_erik2,5,erikCOre,205,2329,1,+,0
3/22/24,15:33:56,29,4,Pract_erik2,6,erikICre,205,3029,1,+,0
3/22/24,15:33:56,29,4,Pract_erik2,7,erikICre,205,909,1,+,0
3/22/24,15:33:56,29,4,Pract_erik2,8,erikICli,203,1022,1,+,0
3/22/24,15:33:56,29,4,Pract_erik2,9,erikICli,203,714,1,+,0
3/22/24,15:33:56,29,4,Pract_erik2,10,erikCOli,203,755,1,+,0
3/22/24,15:33:56,29,4,Pract_erik2,11,erikICli,203,770,1,+,0
3/22/24,15:33:56,29,4,Pract_erik2,12,erikCOre,205,585,1,+,0
3/22/24,15:33:56,29,5,Test_erik2,1,erikCOre,205,989,1,+,0
3/22/24,15:33:56,29,5,Test_erik2,2,erikICli,203,753,1,+,0
3/22/24,15:33:56,29,5,Test_erik2,3,erikICre,205,665,1,+,0
3/22/24,15:33:56,29,5,Test_erik2,4,erikICli,203,628,1,+,0
3/22/24,15:33:56,29,5,Test_erik2,5,erikICli,203,545,1,+,0
3/22/24,15:33:56,29,5,Test_erik2,6,erikICli,203,721,1,+,0
3/22/24,15:33:56,29,5,Test_erik2,7,erikCOli,203,522,1,+,0
3/22/24,15:33:56,29,5,Test_erik2,8,erikCOre,205,515,1,+,0
3/22/24,15:33:56,29,5,Test_erik2,9,erikCOli,203,555,1,+,0
3/22/24,15:33:56,29,5,Test_erik2,10,erikICli,203,635,1,+,0
3/22/24,15:33:56,29,5,Test_erik2,11,erikICre,205,840,1,+,0
3/22/24,15:33:56,29,5,Test_erik2,12,erikICli,203,611,1,+,0
3/22/24,15:33:56,29,5,Test_erik2,13,erikCOre,205,545,1,+,0
3/22/24,15:33:56,29,5,Test_erik2,14,erikICre,205,697,1,+,0
3/22/24,15:33:56,29,5,Test_erik2,15,erikCOre,205,699,1,+,0
3/22/24,15:33:56,29,5,Test_erik2,16,erikCOre,205,653,1,+,0
3/22/24,15:33:56,29,5,Test_erik2,17,erikICre,205,656,1,+,0
3/22/24,15:33:56,29,5,Test_erik2,18,erikCOli,203,659,1,+,0
3/22/24,15:33:56,29,5,Test_erik2,19,erikCOre,205,687,1,+,0
3/22/24,15:33:56,29,5,Test_erik2,20,erikICre,205,753,1,+,0
3/22/24,15:33:56,29,5,Test_erik2,21,erikICre,205,697,1,+,0
3/22/24,15:33:56,29,5,Test_erik2,22,erikCOli,203,643,1,+,0
3/22/24,15:33:56,29,5,Test_erik2,23,erikCOre,205,591,1,+,0
3/22/24,15:33:56,29,5,Test_erik2,24,erikICli,203,732,1,+,0
3/22/24,15:33:56,29,5,Test_erik2,25,erikICre,205,692,1,+,0
3/22/24,15:33:56,29,5,Test_erik2,26,erikCOre,205,630,1,+,0
3/22/24,15:33:56,29,5,Test_erik2,27,erikICre,205,755,1,+,0
3/22/24,15:33:56,29,5,Test_erik2,28,erikCOre,205,666,1,+,0
3/22/24,15:33:56,29,5,Test_erik2,29,erikCOre,205,486,1,+,0
3/22/24,15:33:56,29,5,Test_erik2,30,erikCOli,203,513,1,+,0
3/22/24,15:33:56,29,5,Test_erik2,31,erikCOre,205,578,1,+,0
3/22/24,15:33:56,29,5,Test_erik2,32,erikICli,203,592,1,+,0
3/22/24,15:33:56,29,5,Test_erik2,33,erikCOli,203,518,1,+,0
3/22/24,15:33:56,29,5,Test_erik2,34,erikICli,203,648,1,+,0
3/22/24,15:33:56,29,5,Test_erik2,35,erikCOli,203,476,1,+,0
3/22/24,15:33:56,29,5,Test_erik2,36,erikCOre,205,487,1,+,0
3/22/24,15:33:56,29,5,Test_erik2,37,erikCOre,205,466,1,+,0
3/22/24,15:33:56,29,5,Test_erik2,38,erikICli,203,910,1,+,0
3/22/24,15:33:56,29,5,Test_erik2,39,erikCOre,205,549,1,+,0
3/22/24,15:33:56,29,5,Test_erik2,40,erikICli,203,726,1,+,0
3/22/24,15:33:56,29,5,Test_erik2,41,erikCOli,203,470,1,+,0
3/22/24,15:33:56,29,5,Test_erik2,42,erikCOre,205,497,1,+,0
3/22/24,15:33:56,29,5,Test_erik2,43,erikCOre,205,588,1,+,0
3/22/24,15:33:56,29,5,Test_erik2,44,erikICli,203,706,1,+,0
3/22/24,15:33:56,29,5,Test_erik2,45,erikICli,203,603,1,+,0
3/22/24,15:33:56,29,5,Test_erik2,46,erikCOre,205,737,1,+,0
3/22/24,15:33:56,29,5,Test_erik2,47,erikCOre,205,680,1,+,0
3/22/24,15:33:56,29,5,Test_erik2,48,erikICli,203,595,1,+,0
3/22/24,15:33:56,29,5,Test_erik2,49,erikICli,203,561,1,+,0
3/22/24,15:33:56,29,5,Test_erik2,50,erikICli,203,593,1,+,0
3/22/24,15:33:56,29,5,Test_erik2,51,erikCOli,203,671,1,+,0
3/22/24,15:33:56,29,5,Test_erik2,52,erikCOre,205,721,1,+,0
3/22/24,15:33:56,29,5,Test_erik2,53,erikCOli,203,546,1,+,0
3/22/24,15:33:56,29,5,Test_erik2,54,erikICre,205,745,1,+,0
3/22/24,15:33:56,29,5,Test_erik2,55,erikICli,203,585,1,+,0
3/22/24,15:33:56,29,5,Test_erik2,56,erikICre,205,592,1,+,0
3/22/24,15:33:56,29,5,Test_erik2,57,erikCOli,203,446,1,+,0
3/22/24,15:33:56,29,5,Test_erik2,58,erikICre,205,611,1,+,0
3/22/24,15:33:56,29,5,Test_erik2,59,erikCOre,205,600,1,+,0
3/22/24,15:33:56,29,5,Test_erik2,60,erikCOli,203,510,1,+,0
3/22/24,15:33:56,29,5,Test_erik2,61,erikICre,205,591,1,+,0
3/22/24,15:33:56,29,5,Test_erik2,62,erikICre,205,773,1,+,0
3/22/24,15:33:56,29,5,Test_erik2,63,erikICre,205,676,1,+,0
3/22/24,15:33:56,29,5,Test_erik2,64,erikICre,205,686,1,+,0
3/22/24,15:33:56,29,5,Test_erik2,65,erikCOre,205,497,1,+,0
3/22/24,15:33:56,29,5,Test_erik2,66,erikICre,205,579,1,+,0
3/22/24,15:33:56,29,5,Test_erik2,67,erikCOli,203,498,1,+,0
3/22/24,15:33:56,29,5,Test_erik2,68,erikICli,203,693,1,+,0
3/22/24,15:33:56,29,5,Test_erik2,69,erikCOli,203,542,1,+,0
3/22/24,15:33:56,29,5,Test_erik2,70,erikICre,205,654,1,+,0
3/22/24,15:33:56,29,5,Test_erik2,71,erikCOli,203,529,1,+,0
3/22/24,15:33:56,29,5,Test_erik2,72,erikICli,203,650,1,+,0
3/22/24,15:33:56,29,5,Test_erik2,73,erikCOre,205,590,1,+,0
3/22/24,15:33:56,29,5,Test_erik2,74,erikCOre,205,581,1,+,0
3/22/24,15:33:56,29,5,Test_erik2,75,erikCOre,205,515,1,+,0
3/22/24,15:33:56,29,5,Test_erik2,76,erikCOre,205,516,1,+,0
3/22/24,15:33:56,29,5,Test_erik2,77,erikICli,203,894,1,+,0
3/22/24,15:33:56,29,5,Test_erik2,78,erikICre,205,719,1,+,0
3/22/24,15:33:56,29,5,Test_erik2,79,erikICre,205,569,1,+,0
3/22/24,15:33:56,29,5,Test_erik2,80,erikICli,203,912,1,+,0
3/22/24,15:33:56,29,6,SM2Test_Abr,1,SM2_Abr1,coin,8514,0,Cash,0
3/22/24,15:33:56,29,6,SM2Test_Abr,2,SM2_Abr2,pallace,8066,0,Cello,0
3/22/24,15:33:56,29,6,SM2Test_Abr,3,SM2_Abr3,chip,9108,0,Chip,0
3/22/24,15:33:56,29,6,SM2Test_Abr,4,SM2_Abr4,cup,17799,0,Glass,0
3/22/24,15:33:56,29,6,SM2Test_Abr,5,SM2_Abr5,vase,4563,0,Flower,0
3/22/24,15:33:56,29,6,SM2Test_Abr,6,SM2_Abr6,fish,3471,0,Tuna,0
3/22/24,15:33:56,29,6,SM2Test_Abr,7,SM2_Abr7,arm,2988,0,Armband,0
3/22/24,15:33:56,29,6,SM2Test_Abr,8,SM2_Abr8,cup,9387,1,Horse,0
3/22/24,15:33:56,29,6,SM2Test_Abr,9,SM2_Abr9,flow,4614,0,Cabbage,0
