date,time,subject,blocknum,blockcode,trialnum,trialcode,response,correct,latency,stimulus1
3/13/24,16:08:26,003,1,SMf2Practice,1,achtung,0,0,1700,Attention!
3/13/24,16:08:26,003,1,SMf2Practice,2,SMf2_P_T1,0,0,2800,a
3/13/24,16:08:26,003,1,SMf2Practice,3,SMf2_P_T2,0,0,2800,i
3/13/24,16:08:26,003,1,SMf2Practice,4,SMf2_P_T3,0,0,2800,u
3/13/24,16:08:26,003,2,SMf2Practice_Abr,1,SMf2_P_Abr1,SMf_Pos9,1,3112,
3/13/24,16:08:26,003,2,SMf2Practice_Abr,2,SMf2_P_Abr2,i12,1,6536,u
3/13/24,16:08:26,003,2,SMf2Practice_Abr,3,SMf2_P_Abr3,SMf_Pos12,1,2129,
3/13/24,16:08:26,003,3,SMf2,1,achtung,0,0,1700,Attention!
3/13/24,16:08:26,003,3,SMf2,2,SMf2_T1,0,0,2800,c
3/13/24,16:08:26,003,3,SMf2,3,SMf2_T2,0,0,2800,r
3/13/24,16:08:26,003,3,SMf2,4,SMf2_T3,0,0,2800,s
3/13/24,16:08:26,003,3,SMf2,5,SMf2_T4,0,0,2800,f
3/13/24,16:08:26,003,3,SMf2,6,SMf2_T5,0,0,2800,h
3/13/24,16:08:26,003,3,SMf2,7,SMf2_T6,0,0,2800,q
3/13/24,16:08:26,003,3,SMf2,8,SMf2_T7,0,0,2800,b
3/13/24,16:08:26,003,3,SMf2,9,SMf2_T8,0,0,2800,j
3/13/24,16:08:26,003,3,SMf2,10,SMf2_T9,0,0,2800,y
3/13/24,16:08:26,003,3,SMf2,11,SMf2_T10,0,0,2800,o
3/13/24,16:08:26,003,3,SMf2,12,SMf2_T11,0,0,2800,m
3/13/24,16:08:26,003,3,SMf2,13,SMf2_T12,0,0,2800,x
3/13/24,16:08:26,003,4,test_fi_as1,1,blank_1st,0,0,1500,0
3/13/24,16:08:26,003,4,test_fi_as1,2,fi_as1,38,0,5690,BRUTE
3/13/24,16:08:26,003,4,test_fi_as1,3,blank9,0,0,1494,0
3/13/24,16:08:26,003,4,test_fi_as1,4,fi_as1,38,0,2623,RICHTER
3/13/24,16:08:26,003,4,test_fi_as1,5,blank10,0,0,1612,0
3/13/24,16:08:26,003,4,test_fi_as1,6,fi_as1,38,0,839,HOUSE
3/13/24,16:08:26,003,4,test_fi_as1,7,blank6,0,0,1141,0
3/13/24,16:08:26,003,4,test_fi_as1,8,fi_as1,38,0,726,PRIESTS
3/13/24,16:08:26,003,4,test_fi_as1,9,blank3,0,0,788,0
3/13/24,16:08:26,003,4,test_fi_as1,10,fi_as1,38,0,680,PEPPER
3/13/24,16:08:26,003,4,test_fi_as1,11,blank2,0,0,671,0
3/13/24,16:08:26,003,4,test_fi_as1,12,fi_as1,38,0,593,WOBBLY
3/13/24,16:08:26,003,4,test_fi_as1,13,blank3,0,0,788,0
3/13/24,16:08:26,003,4,test_fi_as1,14,fi_as1,30,0,6281,BARNDOOR
3/13/24,16:08:26,003,4,test_fi_as1,15,blank3,0,0,788,0
3/13/24,16:08:26,003,4,test_fi_as1,16,fi_as1,38,0,1178,PUDDING
3/13/24,16:08:26,003,4,test_fi_as1,17,blank2,0,0,671,0
3/13/24,16:08:26,003,4,test_fi_as1,18,fi_as1,30,0,830,CARROT
3/13/24,16:08:26,003,4,test_fi_as1,19,blank9,0,0,1494,0
3/13/24,16:08:26,003,4,test_fi_as1,20,fi_as1,38,0,1311,DOCTOR
3/13/24,16:08:26,003,4,test_fi_as1,21,blank2,0,0,671,0
3/13/24,16:08:26,003,4,test_fi_as1,22,fi_as1,30,0,1350,METAL
3/13/24,16:08:26,003,4,test_fi_as1,23,blank8,0,0,1376,0
3/13/24,16:08:26,003,4,test_fi_as1,24,fi_as1,38,0,1948,RULER
3/13/24,16:08:26,003,4,test_fi_as1,25,blank1,0,0,553,0
3/13/24,16:08:26,003,4,test_fi_as1,26,fi_as1,38,0,613,LURCH
3/13/24,16:08:26,003,4,test_fi_as1,27,blank9,0,0,1494,0
3/13/24,16:08:26,003,4,test_fi_as1,28,fi_as1,30,0,551,GRAVEL
3/13/24,16:08:26,003,4,test_fi_as1,29,blank4,0,0,906,0
3/13/24,16:08:26,003,4,test_fi_as1,30,fi_as1,38,0,692,SEEDING
3/13/24,16:08:26,003,4,test_fi_as1,31,blank10,0,0,1612,0
3/13/24,16:08:26,003,4,test_fi_as1,32,fi_as1,38,0,685,VOGUE
3/13/24,16:08:26,003,4,test_fi_as1,33,blank10,0,0,1612,0
3/13/24,16:08:26,003,4,test_fi_as1,34,fi_as1,30,0,607,PLAIN
3/13/24,16:08:26,003,4,test_fi_as1,35,blank8,0,0,1376,0
3/13/24,16:08:26,003,4,test_fi_as1,36,fi_as1,38,0,1278,GOGGLE
3/13/24,16:08:26,003,4,test_fi_as1,37,blank4,0,0,906,0
3/13/24,16:08:26,003,4,test_fi_as1,38,fi_as1,38,0,724,ZIPPER
3/13/24,16:08:26,003,4,test_fi_as1,39,blank7,0,0,1259,0
3/13/24,16:08:26,003,4,test_fi_as1,40,fi_as1,38,0,443,GOLDEN
3/13/24,16:08:26,003,4,test_fi_as1,41,blank2,0,0,671,0
3/13/24,16:08:26,003,4,test_fi_as1,42,fi_as1,38,0,438,FUELS
3/13/24,16:08:26,003,4,test_fi_as1,43,blank9,0,0,1494,0
3/13/24,16:08:26,003,4,test_fi_as1,44,fi_as1,38,0,462,BOSTON
3/13/24,16:08:26,003,4,test_fi_as1,45,blank7,0,0,1259,0
3/13/24,16:08:26,003,4,test_fi_as1,46,fi_as1,30,0,536,FLAME
3/13/24,16:08:26,003,4,test_fi_as1,47,blank4,0,0,906,0
3/13/24,16:08:26,003,4,test_fi_as1,48,fi_as1,38,0,462,RESCUE
3/13/24,16:08:26,003,4,test_fi_as1,49,blank6,0,0,1141,0
3/13/24,16:08:26,003,4,test_fi_as1,50,fi_as1,38,0,461,CLINGING
3/13/24,16:08:26,003,4,test_fi_as1,51,blank1,0,0,553,0
3/13/24,16:08:26,003,4,test_fi_as1,52,fi_as1,38,0,564,BETTOR
3/13/24,16:08:26,003,4,test_fi_as1,53,blank5,0,0,1024,0
3/13/24,16:08:26,003,4,test_fi_as1,54,fi_as1,30,0,443,ORGANS
3/13/24,16:08:26,003,4,test_fi_as1,55,blank3,0,0,788,0
3/13/24,16:08:26,003,4,test_fi_as1,56,fi_as1,38,0,402,SCHOOL
3/13/24,16:08:26,003,4,test_fi_as1,57,blank6,0,0,1141,0
3/13/24,16:08:26,003,4,test_fi_as1,58,fi_as1,38,0,419,COPPER
3/13/24,16:08:26,003,4,test_fi_as1,59,blank5,0,0,1024,0
3/13/24,16:08:26,003,4,test_fi_as1,60,fi_as1,38,0,376,CUTEY
3/13/24,16:08:26,003,4,test_fi_as1,61,blank1,0,0,553,0
3/13/24,16:08:26,003,4,test_fi_as1,62,fi_as1,38,0,387,BUTTER
3/13/24,16:08:26,003,4,test_fi_as1,63,blank6,0,0,1141,0
3/13/24,16:08:26,003,4,test_fi_as1,64,fi_as1,30,0,341,ORANGE
3/13/24,16:08:26,003,4,test_fi_as1,65,blank1,0,0,553,0
3/13/24,16:08:26,003,4,test_fi_as1,66,fi_as1,38,0,393,COUCH
3/13/24,16:08:26,003,4,test_fi_as1,67,blank7,0,0,1259,0
3/13/24,16:08:26,003,4,test_fi_as1,68,fi_as1,38,0,414,INSECT
3/13/24,16:08:26,003,4,test_fi_as1,69,blank5,0,0,1024,0
3/13/24,16:08:26,003,4,test_fi_as1,70,fi_as1,38,0,627,GLITTER
3/13/24,16:08:26,003,4,test_fi_as1,71,blank10,0,0,1612,0
3/13/24,16:08:26,003,4,test_fi_as1,72,fi_as1,38,0,431,WINDOW
3/13/24,16:08:26,003,4,test_fi_as1,73,blank8,0,0,1376,0
3/13/24,16:08:26,003,4,test_fi_as1,74,fi_as1,38,0,381,MUTTER
3/13/24,16:08:26,003,4,test_fi_as1,75,blank8,0,0,1376,0
3/13/24,16:08:26,003,4,test_fi_as1,76,fi_as1,30,0,413,CLAPPING
3/13/24,16:08:26,003,4,test_fi_as1,77,blank4,0,0,906,0
3/13/24,16:08:26,003,4,test_fi_as1,78,fi_as1,30,0,632,DAMPER
3/13/24,16:08:26,003,4,test_fi_as1,79,blank5,0,0,1024,0
3/13/24,16:08:26,003,4,test_fi_as1,80,fi_as1,38,0,444,HOTEL
3/13/24,16:08:26,003,5,test_fi_as2,1,blank_1st,0,0,1500,0
3/13/24,16:08:26,003,5,test_fi_as2,2,fi_as2,30,0,537,IMPACT
3/13/24,16:08:26,003,5,test_fi_as2,3,blank10,0,0,1612,0
3/13/24,16:08:26,003,5,test_fi_as2,4,fi_as2,30,0,585,CARTOON
3/13/24,16:08:26,003,5,test_fi_as2,5,blank1,0,0,553,0
3/13/24,16:08:26,003,5,test_fi_as2,6,fi_as2,30,0,483,BAGEL
3/13/24,16:08:26,003,5,test_fi_as2,7,blank4,0,0,906,0
3/13/24,16:08:26,003,5,test_fi_as2,8,fi_as2,30,0,473,HAMMER
3/13/24,16:08:26,003,5,test_fi_as2,9,blank9,0,0,1494,0
3/13/24,16:08:26,003,5,test_fi_as2,10,fi_as2,38,0,561,LESSON
3/13/24,16:08:26,003,5,test_fi_as2,11,blank1,0,0,553,0
3/13/24,16:08:26,003,5,test_fi_as2,12,fi_as2,38,0,1060,GUILTY
3/13/24,16:08:26,003,5,test_fi_as2,13,blank2,0,0,671,0
3/13/24,16:08:26,003,5,test_fi_as2,14,fi_as2,30,0,509,PAPER
3/13/24,16:08:26,003,5,test_fi_as2,15,blank1,0,0,553,0
3/13/24,16:08:26,003,5,test_fi_as2,16,fi_as2,38,0,451,DINNER
3/13/24,16:08:26,003,5,test_fi_as2,17,blank4,0,0,906,0
3/13/24,16:08:26,003,5,test_fi_as2,18,fi_as2,38,0,508,SCORPION
3/13/24,16:08:26,003,5,test_fi_as2,19,blank8,0,0,1376,0
3/13/24,16:08:26,003,5,test_fi_as2,20,fi_as2,38,0,407,TENTH
3/13/24,16:08:26,003,5,test_fi_as2,21,blank10,0,0,1612,0
3/13/24,16:08:26,003,5,test_fi_as2,22,fi_as2,38,0,428,IMPLORE
3/13/24,16:08:26,003,5,test_fi_as2,23,blank2,0,0,671,0
3/13/24,16:08:26,003,5,test_fi_as2,24,fi_as2,38,0,392,LIGHT
3/13/24,16:08:26,003,5,test_fi_as2,25,blank4,0,0,906,0
3/13/24,16:08:26,003,5,test_fi_as2,26,fi_as2,38,0,404,BUSHES
3/13/24,16:08:26,003,5,test_fi_as2,27,blank8,0,0,1376,0
3/13/24,16:08:26,003,5,test_fi_as2,28,fi_as2,38,0,403,CHESS
3/13/24,16:08:26,003,5,test_fi_as2,29,blank8,0,0,1376,0
3/13/24,16:08:26,003,5,test_fi_as2,30,fi_as2,30,0,562,CRACKER
3/13/24,16:08:26,003,5,test_fi_as2,31,blank7,0,0,1259,0
3/13/24,16:08:26,003,5,test_fi_as2,32,fi_as2,38,0,767,PUPPY
3/13/24,16:08:26,003,5,test_fi_as2,33,blank2,0,0,671,0
3/13/24,16:08:26,003,5,test_fi_as2,34,fi_as2,38,0,445,SUNNY
3/13/24,16:08:26,003,5,test_fi_as2,35,blank3,0,0,788,0
3/13/24,16:08:26,003,5,test_fi_as2,36,fi_as2,38,0,491,SWITCH
3/13/24,16:08:26,003,5,test_fi_as2,37,blank5,0,0,1024,0
3/13/24,16:08:26,003,5,test_fi_as2,38,fi_as2,38,0,438,GRIND
3/13/24,16:08:26,003,5,test_fi_as2,39,blank5,0,0,1024,0
3/13/24,16:08:26,003,5,test_fi_as2,40,fi_as2,38,0,402,JUNGLE
3/13/24,16:08:26,003,5,test_fi_as2,41,blank9,0,0,1494,0
3/13/24,16:08:26,003,5,test_fi_as2,42,fi_as2,38,0,461,WOOLLEY
3/13/24,16:08:26,003,5,test_fi_as2,43,blank6,0,0,1141,0
3/13/24,16:08:26,003,5,test_fi_as2,44,fi_as2,38,0,396,RUSTLING
3/13/24,16:08:26,003,5,test_fi_as2,45,blank5,0,0,1024,0
3/13/24,16:08:26,003,5,test_fi_as2,46,fi_as2,38,0,338,GROSS
3/13/24,16:08:26,003,5,test_fi_as2,47,blank2,0,0,671,0
3/13/24,16:08:26,003,5,test_fi_as2,48,fi_as2,38,0,386,WINTER
3/13/24,16:08:26,003,5,test_fi_as2,49,blank10,0,0,1612,0
3/13/24,16:08:26,003,5,test_fi_as2,50,fi_as2,38,0,456,FLASH
3/13/24,16:08:26,003,5,test_fi_as2,51,blank5,0,0,1024,0
3/13/24,16:08:26,003,5,test_fi_as2,52,fi_as2,38,0,635,PUDDING
3/13/24,16:08:26,003,5,test_fi_as2,53,blank10,0,0,1612,0
3/13/24,16:08:26,003,5,test_fi_as2,54,fi_as2,38,0,983,SMITH
3/13/24,16:08:26,003,5,test_fi_as2,55,blank4,0,0,906,0
3/13/24,16:08:26,003,5,test_fi_as2,56,fi_as2,30,0,689,MAILED
3/13/24,16:08:26,003,5,test_fi_as2,57,blank6,0,0,1141,0
3/13/24,16:08:26,003,5,test_fi_as2,58,fi_as2,38,0,606,COPING
3/13/24,16:08:26,003,5,test_fi_as2,59,blank3,0,0,788,0
3/13/24,16:08:26,003,5,test_fi_as2,60,fi_as2,38,0,510,ZIPPER
3/13/24,16:08:26,003,5,test_fi_as2,61,blank3,0,0,788,0
3/13/24,16:08:26,003,5,test_fi_as2,62,fi_as2,38,0,449,GETTING
3/13/24,16:08:26,003,5,test_fi_as2,63,blank7,0,0,1259,0
3/13/24,16:08:26,003,5,test_fi_as2,64,fi_as2,38,0,427,RUSTLE
3/13/24,16:08:26,003,5,test_fi_as2,65,blank7,0,0,1259,0
3/13/24,16:08:26,003,5,test_fi_as2,66,fi_as2,30,0,423,STAMPS
3/13/24,16:08:26,003,5,test_fi_as2,67,blank9,0,0,1494,0
3/13/24,16:08:26,003,5,test_fi_as2,68,fi_as2,30,0,561,STRANGE
3/13/24,16:08:26,003,5,test_fi_as2,69,blank6,0,0,1141,0
3/13/24,16:08:26,003,5,test_fi_as2,70,fi_as2,38,0,451,FEEDER
3/13/24,16:08:26,003,5,test_fi_as2,71,blank9,0,0,1494,0
3/13/24,16:08:26,003,5,test_fi_as2,72,fi_as2,38,0,779,REPTILE
3/13/24,16:08:26,003,5,test_fi_as2,73,blank1,0,0,553,0
3/13/24,16:08:26,003,5,test_fi_as2,74,fi_as2,38,0,477,FISHER
3/13/24,16:08:26,003,5,test_fi_as2,75,blank7,0,0,1259,0
3/13/24,16:08:26,003,5,test_fi_as2,76,fi_as2,38,0,494,NOBLE
3/13/24,16:08:26,003,5,test_fi_as2,77,blank3,0,0,788,0
3/13/24,16:08:26,003,5,test_fi_as2,78,fi_as2,38,0,411,WINGS
3/13/24,16:08:26,003,5,test_fi_as2,79,blank8,0,0,1376,0
3/13/24,16:08:26,003,5,test_fi_as2,80,fi_as2,30,0,626,FABRIC
3/13/24,16:08:26,003,6,SMf2_Abr,1,SMf2_Abr12,SMf_Pos15,0,9528,
3/13/24,16:08:26,003,6,SMf2_Abr,2,SMf2_Abr2,SMf_Pos5,1,4544,
3/13/24,16:08:26,003,6,SMf2_Abr,3,SMf2_Abr4,o18,0,15408,b
3/13/24,16:08:26,003,6,SMf2_Abr,4,SMf2_Abr3,c11,0,17096,b
3/13/24,16:08:26,003,6,SMf2_Abr,5,SMf2_Abr8,SMf_Pos3,0,2787,
3/13/24,16:08:26,003,6,SMf2_Abr,6,SMf2_Abr6,j14,0,14645,b
3/13/24,16:08:26,003,6,SMf2_Abr,7,SMf2_Abr1,c11,1,2574,b
3/13/24,16:08:26,003,6,SMf2_Abr,8,SMf2_Abr10,SMf_Pos12,1,2946,
3/13/24,16:08:26,003,6,SMf2_Abr,9,SMf2_Abr11,SMf_Pos3,0,2918,
3/13/24,16:08:26,003,6,SMf2_Abr,10,SMf2_Abr9,f12,1,4244,b
3/13/24,16:08:26,003,6,SMf2_Abr,11,SMf2_Abr7,q17,1,2802,b
3/13/24,16:08:26,003,6,SMf2_Abr,12,SMf2_Abr5,SMf_Pos15,0,5317,
3/13/24,17:03:32,004,1,SMf2Practice,1,achtung,0,0,1700,Attention!
3/13/24,17:03:32,004,1,SMf2Practice,2,SMf2_P_T1,0,0,2800,a
3/13/24,17:03:32,004,1,SMf2Practice,3,SMf2_P_T2,0,0,2800,i
3/13/24,17:03:32,004,1,SMf2Practice,4,SMf2_P_T3,0,0,2800,u
3/13/24,17:03:32,004,2,SMf2Practice_Abr,1,SMf2_P_Abr1,SMf_Pos9,1,2497,
3/13/24,17:03:32,004,2,SMf2Practice_Abr,2,SMf2_P_Abr2,i12,1,4123,u
3/13/24,17:03:32,004,2,SMf2Practice_Abr,3,SMf2_P_Abr3,SMf_Pos12,1,2138,
3/13/24,17:03:32,004,3,SMf2,1,achtung,0,0,1700,Attention!
3/13/24,17:03:32,004,3,SMf2,2,SMf2_T1,0,0,2800,c
3/13/24,17:03:32,004,3,SMf2,3,SMf2_T2,0,0,2800,r
3/13/24,17:03:32,004,3,SMf2,4,SMf2_T3,0,0,2800,s
3/13/24,17:03:32,004,3,SMf2,5,SMf2_T4,0,0,2800,f
3/13/24,17:03:32,004,3,SMf2,6,SMf2_T5,0,0,2800,h
3/13/24,17:03:32,004,3,SMf2,7,SMf2_T6,0,0,2800,q
3/13/24,17:03:32,004,3,SMf2,8,SMf2_T7,0,0,2800,b
3/13/24,17:03:32,004,3,SMf2,9,SMf2_T8,0,0,2800,j
3/13/24,17:03:32,004,3,SMf2,10,SMf2_T9,0,0,2800,y
3/13/24,17:03:32,004,3,SMf2,11,SMf2_T10,0,0,2800,o
3/13/24,17:03:32,004,3,SMf2,12,SMf2_T11,0,0,2800,m
3/13/24,17:03:32,004,3,SMf2,13,SMf2_T12,0,0,2800,x
3/13/24,17:03:32,004,4,test_fi_as1,1,blank_1st,0,0,1500,0
3/13/24,17:03:32,004,4,test_fi_as1,2,fi_as1,30,0,14905,BRUTE
3/13/24,17:03:32,004,4,test_fi_as1,3,blank6,0,0,1141,0
3/13/24,17:03:32,004,4,test_fi_as1,4,fi_as1,30,0,4689,RICHTER
3/13/24,17:03:32,004,4,test_fi_as1,5,blank10,0,0,1612,0
3/13/24,17:03:32,004,4,test_fi_as1,6,fi_as1,30,0,2721,HOUSE
3/13/24,17:03:32,004,4,test_fi_as1,7,blank5,0,0,1024,0
3/13/24,17:03:32,004,4,test_fi_as1,8,fi_as1,30,0,2366,PRIESTS
3/13/24,17:03:32,004,4,test_fi_as1,9,blank10,0,0,1612,0
3/13/24,17:03:32,004,4,test_fi_as1,10,fi_as1,30,0,1153,PEPPER
3/13/24,17:03:32,004,4,test_fi_as1,11,blank9,0,0,1494,0
3/13/24,17:03:32,004,4,test_fi_as1,12,fi_as1,30,0,972,WOBBLY
3/13/24,17:03:32,004,4,test_fi_as1,13,blank4,0,0,906,0
3/13/24,17:03:32,004,4,test_fi_as1,14,fi_as1,38,0,1943,BARNDOOR
3/13/24,17:03:32,004,4,test_fi_as1,15,blank7,0,0,1259,0
3/13/24,17:03:32,004,4,test_fi_as1,16,fi_as1,30,0,1130,PUDDING
3/13/24,17:03:32,004,4,test_fi_as1,17,blank4,0,0,906,0
3/13/24,17:03:32,004,4,test_fi_as1,18,fi_as1,38,0,1071,CARROT
3/13/24,17:03:32,004,4,test_fi_as1,19,blank2,0,0,671,0
3/13/24,17:03:32,004,4,test_fi_as1,20,fi_as1,30,0,719,DOCTOR
3/13/24,17:03:32,004,4,test_fi_as1,21,blank1,0,0,553,0
3/13/24,17:03:32,004,4,test_fi_as1,22,fi_as1,38,0,2132,METAL
3/13/24,17:03:32,004,4,test_fi_as1,23,blank3,0,0,788,0
3/13/24,17:03:32,004,4,test_fi_as1,24,fi_as1,30,0,659,RULER
3/13/24,17:03:32,004,4,test_fi_as1,25,blank2,0,0,671,0
3/13/24,17:03:32,004,4,test_fi_as1,26,fi_as1,30,0,989,LURCH
3/13/24,17:03:32,004,4,test_fi_as1,27,blank6,0,0,1141,0
3/13/24,17:03:32,004,4,test_fi_as1,28,fi_as1,38,0,734,GRAVEL
3/13/24,17:03:32,004,4,test_fi_as1,29,blank5,0,0,1024,0
3/13/24,17:03:32,004,4,test_fi_as1,30,fi_as1,30,0,694,SEEDING
3/13/24,17:03:32,004,4,test_fi_as1,31,blank1,0,0,553,0
3/13/24,17:03:32,004,4,test_fi_as1,32,fi_as1,30,0,900,VOGUE
3/13/24,17:03:32,004,4,test_fi_as1,33,blank9,0,0,1494,0
3/13/24,17:03:32,004,4,test_fi_as1,34,fi_as1,38,0,816,PLAIN
3/13/24,17:03:32,004,4,test_fi_as1,35,blank2,0,0,671,0
3/13/24,17:03:32,004,4,test_fi_as1,36,fi_as1,30,0,1379,GOGGLE
3/13/24,17:03:32,004,4,test_fi_as1,37,blank4,0,0,906,0
3/13/24,17:03:32,004,4,test_fi_as1,38,fi_as1,30,0,998,ZIPPER
3/13/24,17:03:32,004,4,test_fi_as1,39,blank1,0,0,553,0
3/13/24,17:03:32,004,4,test_fi_as1,40,fi_as1,30,0,647,GOLDEN
3/13/24,17:03:32,004,4,test_fi_as1,41,blank9,0,0,1494,0
3/13/24,17:03:32,004,4,test_fi_as1,42,fi_as1,30,0,831,FUELS
3/13/24,17:03:32,004,4,test_fi_as1,43,blank6,0,0,1141,0
3/13/24,17:03:32,004,4,test_fi_as1,44,fi_as1,30,0,1774,BOSTON
3/13/24,17:03:32,004,4,test_fi_as1,45,blank1,0,0,553,0
3/13/24,17:03:32,004,4,test_fi_as1,46,fi_as1,38,0,1237,FLAME
3/13/24,17:03:32,004,4,test_fi_as1,47,blank5,0,0,1024,0
3/13/24,17:03:32,004,4,test_fi_as1,48,fi_as1,30,0,712,RESCUE
3/13/24,17:03:32,004,4,test_fi_as1,49,blank3,0,0,788,0
3/13/24,17:03:32,004,4,test_fi_as1,50,fi_as1,30,0,916,CLINGING
3/13/24,17:03:32,004,4,test_fi_as1,51,blank3,0,0,788,0
3/13/24,17:03:32,004,4,test_fi_as1,52,fi_as1,30,0,726,BETTOR
3/13/24,17:03:32,004,4,test_fi_as1,53,blank8,0,0,1376,0
3/13/24,17:03:32,004,4,test_fi_as1,54,fi_as1,38,0,864,ORGANS
3/13/24,17:03:32,004,4,test_fi_as1,55,blank10,0,0,1612,0
3/13/24,17:03:32,004,4,test_fi_as1,56,fi_as1,30,0,890,SCHOOL
3/13/24,17:03:32,004,4,test_fi_as1,57,blank7,0,0,1259,0
3/13/24,17:03:32,004,4,test_fi_as1,58,fi_as1,30,0,546,COPPER
3/13/24,17:03:32,004,4,test_fi_as1,59,blank7,0,0,1259,0
3/13/24,17:03:32,004,4,test_fi_as1,60,fi_as1,30,0,585,CUTEY
3/13/24,17:03:32,004,4,test_fi_as1,61,blank2,0,0,671,0
3/13/24,17:03:32,004,4,test_fi_as1,62,fi_as1,30,0,653,BUTTER
3/13/24,17:03:32,004,4,test_fi_as1,63,blank8,0,0,1376,0
3/13/24,17:03:32,004,4,test_fi_as1,64,fi_as1,38,0,2145,ORANGE
3/13/24,17:03:32,004,4,test_fi_as1,65,blank8,0,0,1376,0
3/13/24,17:03:32,004,4,test_fi_as1,66,fi_as1,30,0,576,COUCH
3/13/24,17:03:32,004,4,test_fi_as1,67,blank7,0,0,1259,0
3/13/24,17:03:32,004,4,test_fi_as1,68,fi_as1,30,0,597,INSECT
3/13/24,17:03:32,004,4,test_fi_as1,69,blank9,0,0,1494,0
3/13/24,17:03:32,004,4,test_fi_as1,70,fi_as1,30,0,647,GLITTER
3/13/24,17:03:32,004,4,test_fi_as1,71,blank10,0,0,1612,0
3/13/24,17:03:32,004,4,test_fi_as1,72,fi_as1,30,0,507,WINDOW
3/13/24,17:03:32,004,4,test_fi_as1,73,blank5,0,0,1024,0
3/13/24,17:03:32,004,4,test_fi_as1,74,fi_as1,30,0,588,MUTTER
3/13/24,17:03:32,004,4,test_fi_as1,75,blank6,0,0,1141,0
3/13/24,17:03:32,004,4,test_fi_as1,76,fi_as1,38,0,645,CLAPPING
3/13/24,17:03:32,004,4,test_fi_as1,77,blank8,0,0,1376,0
3/13/24,17:03:32,004,4,test_fi_as1,78,fi_as1,38,0,842,DAMPER
3/13/24,17:03:32,004,4,test_fi_as1,79,blank4,0,0,906,0
3/13/24,17:03:32,004,4,test_fi_as1,80,fi_as1,30,0,987,HOTEL
3/13/24,17:03:32,004,5,test_fi_as2,1,blank_1st,0,0,1500,0
3/13/24,17:03:32,004,5,test_fi_as2,2,fi_as2,38,0,697,IMPACT
3/13/24,17:03:32,004,5,test_fi_as2,3,blank3,0,0,788,0
3/13/24,17:03:32,004,5,test_fi_as2,4,fi_as2,38,0,733,CARTOON
3/13/24,17:03:32,004,5,test_fi_as2,5,blank8,0,0,1376,0
3/13/24,17:03:32,004,5,test_fi_as2,6,fi_as2,38,0,486,BAGEL
3/13/24,17:03:32,004,5,test_fi_as2,7,blank2,0,0,671,0
3/13/24,17:03:32,004,5,test_fi_as2,8,fi_as2,38,0,535,HAMMER
3/13/24,17:03:32,004,5,test_fi_as2,9,blank5,0,0,1024,0
3/13/24,17:03:32,004,5,test_fi_as2,10,fi_as2,30,0,879,LESSON
3/13/24,17:03:32,004,5,test_fi_as2,11,blank1,0,0,553,0
3/13/24,17:03:32,004,5,test_fi_as2,12,fi_as2,30,0,837,GUILTY
3/13/24,17:03:32,004,5,test_fi_as2,13,blank3,0,0,788,0
3/13/24,17:03:32,004,5,test_fi_as2,14,fi_as2,38,0,498,PAPER
3/13/24,17:03:32,004,5,test_fi_as2,15,blank5,0,0,1024,0
3/13/24,17:03:32,004,5,test_fi_as2,16,fi_as2,30,0,844,DINNER
3/13/24,17:03:32,004,5,test_fi_as2,17,blank10,0,0,1612,0
3/13/24,17:03:32,004,5,test_fi_as2,18,fi_as2,30,0,1687,SCORPION
3/13/24,17:03:32,004,5,test_fi_as2,19,blank6,0,0,1141,0
3/13/24,17:03:32,004,5,test_fi_as2,20,fi_as2,30,0,714,TENTH
3/13/24,17:03:32,004,5,test_fi_as2,21,blank1,0,0,553,0
3/13/24,17:03:32,004,5,test_fi_as2,22,fi_as2,30,0,847,IMPLORE
3/13/24,17:03:32,004,5,test_fi_as2,23,blank9,0,0,1494,0
3/13/24,17:03:32,004,5,test_fi_as2,24,fi_as2,30,0,607,LIGHT
3/13/24,17:03:32,004,5,test_fi_as2,25,blank4,0,0,906,0
3/13/24,17:03:32,004,5,test_fi_as2,26,fi_as2,30,0,649,BUSHES
3/13/24,17:03:32,004,5,test_fi_as2,27,blank2,0,0,671,0
3/13/24,17:03:32,004,5,test_fi_as2,28,fi_as2,30,0,660,CHESS
3/13/24,17:03:32,004,5,test_fi_as2,29,blank9,0,0,1494,0
3/13/24,17:03:32,004,5,test_fi_as2,30,fi_as2,38,0,730,CRACKER
3/13/24,17:03:32,004,5,test_fi_as2,31,blank9,0,0,1494,0
3/13/24,17:03:32,004,5,test_fi_as2,32,fi_as2,30,0,471,PUPPY
3/13/24,17:03:32,004,5,test_fi_as2,33,blank6,0,0,1141,0
3/13/24,17:03:32,004,5,test_fi_as2,34,fi_as2,30,0,525,SUNNY
3/13/24,17:03:32,004,5,test_fi_as2,35,blank10,0,0,1612,0
3/13/24,17:03:32,004,5,test_fi_as2,36,fi_as2,30,0,1118,SWITCH
3/13/24,17:03:32,004,5,test_fi_as2,37,blank3,0,0,788,0
3/13/24,17:03:32,004,5,test_fi_as2,38,fi_as2,30,0,487,GRIND
3/13/24,17:03:32,004,5,test_fi_as2,39,blank5,0,0,1024,0
3/13/24,17:03:32,004,5,test_fi_as2,40,fi_as2,30,0,530,JUNGLE
3/13/24,17:03:32,004,5,test_fi_as2,41,blank3,0,0,788,0
3/13/24,17:03:32,004,5,test_fi_as2,42,fi_as2,30,0,461,WOOLLEY
3/13/24,17:03:32,004,5,test_fi_as2,43,blank4,0,0,906,0
3/13/24,17:03:32,004,5,test_fi_as2,44,fi_as2,30,0,3925,RUSTLING
3/13/24,17:03:32,004,5,test_fi_as2,45,blank8,0,0,1376,0
3/13/24,17:03:32,004,5,test_fi_as2,46,fi_as2,30,0,1488,GROSS
3/13/24,17:03:32,004,5,test_fi_as2,47,blank6,0,0,1141,0
3/13/24,17:03:32,004,5,test_fi_as2,48,fi_as2,30,0,531,WINTER
3/13/24,17:03:32,004,5,test_fi_as2,49,blank8,0,0,1376,0
3/13/24,17:03:32,004,5,test_fi_as2,50,fi_as2,38,0,749,FLASH
3/13/24,17:03:32,004,5,test_fi_as2,51,blank7,0,0,1259,0
3/13/24,17:03:32,004,5,test_fi_as2,52,fi_as2,30,0,443,PUDDING
3/13/24,17:03:32,004,5,test_fi_as2,53,blank7,0,0,1259,0
3/13/24,17:03:32,004,5,test_fi_as2,54,fi_as2,30,0,813,SMITH
3/13/24,17:03:32,004,5,test_fi_as2,55,blank5,0,0,1024,0
3/13/24,17:03:32,004,5,test_fi_as2,56,fi_as2,38,0,587,MAILED
3/13/24,17:03:32,004,5,test_fi_as2,57,blank1,0,0,553,0
3/13/24,17:03:32,004,5,test_fi_as2,58,fi_as2,30,0,485,COPING
3/13/24,17:03:32,004,5,test_fi_as2,59,blank2,0,0,671,0
3/13/24,17:03:32,004,5,test_fi_as2,60,fi_as2,30,0,1261,ZIPPER
3/13/24,17:03:32,004,5,test_fi_as2,61,blank4,0,0,906,0
3/13/24,17:03:32,004,5,test_fi_as2,62,fi_as2,30,0,820,GETTING
3/13/24,17:03:32,004,5,test_fi_as2,63,blank7,0,0,1259,0
3/13/24,17:03:32,004,5,test_fi_as2,64,fi_as2,30,0,2311,RUSTLE
3/13/24,17:03:32,004,5,test_fi_as2,65,blank4,0,0,906,0
3/13/24,17:03:32,004,5,test_fi_as2,66,fi_as2,38,0,730,STAMPS
3/13/24,17:03:32,004,5,test_fi_as2,67,blank10,0,0,1612,0
3/13/24,17:03:32,004,5,test_fi_as2,68,fi_as2,38,0,754,STRANGE
3/13/24,17:03:32,004,5,test_fi_as2,69,blank9,0,0,1494,0
3/13/24,17:03:32,004,5,test_fi_as2,70,fi_as2,30,0,597,FEEDER
3/13/24,17:03:32,004,5,test_fi_as2,71,blank1,0,0,553,0
3/13/24,17:03:32,004,5,test_fi_as2,72,fi_as2,30,0,694,REPTILE
3/13/24,17:03:32,004,5,test_fi_as2,73,blank2,0,0,671,0
3/13/24,17:03:32,004,5,test_fi_as2,74,fi_as2,30,0,918,FISHER
3/13/24,17:03:32,004,5,test_fi_as2,75,blank7,0,0,1259,0
3/13/24,17:03:32,004,5,test_fi_as2,76,fi_as2,30,0,445,NOBLE
3/13/24,17:03:32,004,5,test_fi_as2,77,blank6,0,0,1141,0
3/13/24,17:03:32,004,5,test_fi_as2,78,fi_as2,30,0,469,WINGS
3/13/24,17:03:32,004,5,test_fi_as2,79,blank8,0,0,1376,0
3/13/24,17:03:32,004,5,test_fi_as2,80,fi_as2,38,0,593,FABRIC
3/13/24,17:03:32,004,6,SMf2_Abr,1,SMf2_Abr12,SMf_Pos10,0,10690,
3/13/24,17:03:32,004,6,SMf2_Abr,2,SMf2_Abr2,SMf_Pos5,1,3201,
3/13/24,17:03:32,004,6,SMf2_Abr,3,SMf2_Abr4,j14,0,20865,b
3/13/24,17:03:32,004,6,SMf2_Abr,4,SMf2_Abr3,f12,0,5181,b
3/13/24,17:03:32,004,6,SMf2_Abr,5,SMf2_Abr8,SMf_Pos11,0,2764,
3/13/24,17:03:32,004,6,SMf2_Abr,6,SMf2_Abr6,j14,0,1360,b
3/13/24,17:03:32,004,6,SMf2_Abr,7,SMf2_Abr1,c11,1,1862,b
3/13/24,17:03:32,004,6,SMf2_Abr,8,SMf2_Abr10,SMf_Pos1,0,2209,
3/13/24,17:03:32,004,6,SMf2_Abr,9,SMf2_Abr11,SMf_Pos3,0,2477,
3/13/24,17:03:32,004,6,SMf2_Abr,10,SMf2_Abr9,b10,0,5709,b
3/13/24,17:03:32,004,6,SMf2_Abr,11,SMf2_Abr7,y21,0,2614,b
3/13/24,17:03:32,004,6,SMf2_Abr,12,SMf2_Abr5,SMf_Pos12,0,2400,
3/18/24,15:36:26,009,1,SMf2Practice,1,achtung,0,0,1700,Attention!
3/18/24,15:36:26,009,1,SMf2Practice,2,SMf2_P_T1,0,0,2800,a
3/18/24,15:36:26,009,1,SMf2Practice,3,SMf2_P_T2,0,0,2800,i
3/18/24,15:36:26,009,1,SMf2Practice,4,SMf2_P_T3,0,0,2800,u
3/18/24,15:36:26,009,2,SMf2Practice_Abr,1,SMf2_P_Abr1,SMf_Pos9,1,3014,
3/18/24,15:36:26,009,2,SMf2Practice_Abr,2,SMf2_P_Abr2,i12,1,8043,u
3/18/24,15:36:26,009,2,SMf2Practice_Abr,3,SMf2_P_Abr3,SMf_Pos12,1,2029,
3/18/24,15:36:26,009,3,SMf2,1,achtung,0,0,1700,Attention!
3/18/24,15:36:26,009,3,SMf2,2,SMf2_T1,0,0,2800,c
3/18/24,15:36:26,009,3,SMf2,3,SMf2_T2,0,0,2800,r
3/18/24,15:36:26,009,3,SMf2,4,SMf2_T3,0,0,2800,s
3/18/24,15:36:26,009,3,SMf2,5,SMf2_T4,0,0,2800,f
3/18/24,15:36:26,009,3,SMf2,6,SMf2_T5,0,0,2800,h
3/18/24,15:36:26,009,3,SMf2,7,SMf2_T6,0,0,2800,q
3/18/24,15:36:26,009,3,SMf2,8,SMf2_T7,0,0,2800,b
3/18/24,15:36:26,009,3,SMf2,9,SMf2_T8,0,0,2800,j
3/18/24,15:36:26,009,3,SMf2,10,SMf2_T9,0,0,2800,y
3/18/24,15:36:26,009,3,SMf2,11,SMf2_T10,0,0,2800,o
3/18/24,15:36:26,009,3,SMf2,12,SMf2_T11,0,0,2800,m
3/18/24,15:36:26,009,3,SMf2,13,SMf2_T12,0,0,2800,x
3/18/24,15:36:26,009,4,test_fi_as1,1,blank_1st,0,0,1500,0
3/18/24,15:36:26,009,4,test_fi_as1,2,fi_as1,30,0,30029,BRUTE
3/18/24,15:36:26,009,4,test_fi_as1,3,blank2,0,0,671,0
3/18/24,15:36:26,009,4,test_fi_as1,4,fi_as1,30,0,3005,RICHTER
3/18/24,15:36:26,009,4,test_fi_as1,5,blank7,0,0,1259,0
3/18/24,15:36:26,009,4,test_fi_as1,6,fi_as1,30,0,3028,HOUSE
3/18/24,15:36:26,009,4,test_fi_as1,7,blank6,0,0,1141,0
3/18/24,15:36:26,009,4,test_fi_as1,8,fi_as1,30,0,3070,PRIESTS
3/18/24,15:36:26,009,4,test_fi_as1,9,blank1,0,0,553,0
3/18/24,15:36:26,009,4,test_fi_as1,10,fi_as1,30,0,1544,PEPPER
3/18/24,15:36:26,009,4,test_fi_as1,11,blank5,0,0,1024,0
3/18/24,15:36:26,009,4,test_fi_as1,12,fi_as1,30,0,1926,WOBBLY
3/18/24,15:36:26,009,4,test_fi_as1,13,blank8,0,0,1376,0
3/18/24,15:36:26,009,4,test_fi_as1,14,fi_as1,38,0,1973,BARNDOOR
3/18/24,15:36:26,009,4,test_fi_as1,15,blank6,0,0,1141,0
3/18/24,15:36:26,009,4,test_fi_as1,16,fi_as1,30,0,1452,PUDDING
3/18/24,15:36:26,009,4,test_fi_as1,17,blank10,0,0,1612,0
3/18/24,15:36:26,009,4,test_fi_as1,18,fi_as1,38,0,1677,CARROT
3/18/24,15:36:26,009,4,test_fi_as1,19,blank2,0,0,671,0
3/18/24,15:36:26,009,4,test_fi_as1,20,fi_as1,30,0,1300,DOCTOR
3/18/24,15:36:26,009,4,test_fi_as1,21,blank10,0,0,1612,0
3/18/24,15:36:26,009,4,test_fi_as1,22,fi_as1,38,0,1100,METAL
3/18/24,15:36:26,009,4,test_fi_as1,23,blank2,0,0,671,0
3/18/24,15:36:26,009,4,test_fi_as1,24,fi_as1,30,0,1275,RULER
3/18/24,15:36:26,009,4,test_fi_as1,25,blank5,0,0,1024,0
3/18/24,15:36:26,009,4,test_fi_as1,26,fi_as1,30,0,1372,LURCH
3/18/24,15:36:26,009,4,test_fi_as1,27,blank6,0,0,1141,0
3/18/24,15:36:26,009,4,test_fi_as1,28,fi_as1,38,0,1525,GRAVEL
3/18/24,15:36:26,009,4,test_fi_as1,29,blank8,0,0,1376,0
3/18/24,15:36:26,009,4,test_fi_as1,30,fi_as1,30,0,2300,SEEDING
3/18/24,15:36:26,009,4,test_fi_as1,31,blank3,0,0,788,0
3/18/24,15:36:26,009,4,test_fi_as1,32,fi_as1,30,0,1268,VOGUE
3/18/24,15:36:26,009,4,test_fi_as1,33,blank9,0,0,1494,0
3/18/24,15:36:26,009,4,test_fi_as1,34,fi_as1,38,0,1178,PLAIN
3/18/24,15:36:26,009,4,test_fi_as1,35,blank5,0,0,1024,0
3/18/24,15:36:26,009,4,test_fi_as1,36,fi_as1,30,0,1255,GOGGLE
3/18/24,15:36:26,009,4,test_fi_as1,37,blank4,0,0,906,0
3/18/24,15:36:26,009,4,test_fi_as1,38,fi_as1,30,0,1247,ZIPPER
3/18/24,15:36:26,009,4,test_fi_as1,39,blank7,0,0,1259,0
3/18/24,15:36:26,009,4,test_fi_as1,40,fi_as1,30,0,952,GOLDEN
3/18/24,15:36:26,009,4,test_fi_as1,41,blank6,0,0,1141,0
3/18/24,15:36:26,009,4,test_fi_as1,42,fi_as1,30,0,1338,FUELS
3/18/24,15:36:26,009,4,test_fi_as1,43,blank2,0,0,671,0
3/18/24,15:36:26,009,4,test_fi_as1,44,fi_as1,30,0,1679,BOSTON
3/18/24,15:36:26,009,4,test_fi_as1,45,blank9,0,0,1494,0
3/18/24,15:36:26,009,4,test_fi_as1,46,fi_as1,38,0,1188,FLAME
3/18/24,15:36:26,009,4,test_fi_as1,47,blank1,0,0,553,0
3/18/24,15:36:26,009,4,test_fi_as1,48,fi_as1,30,0,893,RESCUE
3/18/24,15:36:26,009,4,test_fi_as1,49,blank3,0,0,788,0
3/18/24,15:36:26,009,4,test_fi_as1,50,fi_as1,30,0,1023,CLINGING
3/18/24,15:36:26,009,4,test_fi_as1,51,blank1,0,0,553,0
3/18/24,15:36:26,009,4,test_fi_as1,52,fi_as1,30,0,2007,BETTOR
3/18/24,15:36:26,009,4,test_fi_as1,53,blank3,0,0,788,0
3/18/24,15:36:26,009,4,test_fi_as1,54,fi_as1,38,0,1243,ORGANS
3/18/24,15:36:26,009,4,test_fi_as1,55,blank7,0,0,1259,0
3/18/24,15:36:26,009,4,test_fi_as1,56,fi_as1,30,0,1004,SCHOOL
3/18/24,15:36:26,009,4,test_fi_as1,57,blank10,0,0,1612,0
3/18/24,15:36:26,009,4,test_fi_as1,58,fi_as1,30,0,1865,COPPER
3/18/24,15:36:26,009,4,test_fi_as1,59,blank9,0,0,1494,0
3/18/24,15:36:26,009,4,test_fi_as1,60,fi_as1,30,0,1462,CUTEY
3/18/24,15:36:26,009,4,test_fi_as1,61,blank1,0,0,553,0
3/18/24,15:36:26,009,4,test_fi_as1,62,fi_as1,30,0,923,BUTTER
3/18/24,15:36:26,009,4,test_fi_as1,63,blank8,0,0,1376,0
3/18/24,15:36:26,009,4,test_fi_as1,64,fi_as1,38,0,1149,ORANGE
3/18/24,15:36:26,009,4,test_fi_as1,65,blank8,0,0,1376,0
3/18/24,15:36:26,009,4,test_fi_as1,66,fi_as1,30,0,908,COUCH
3/18/24,15:36:26,009,4,test_fi_as1,67,blank5,0,0,1024,0
3/18/24,15:36:26,009,4,test_fi_as1,68,fi_as1,30,0,804,INSECT
3/18/24,15:36:26,009,4,test_fi_as1,69,blank4,0,0,906,0
3/18/24,15:36:26,009,4,test_fi_as1,70,fi_as1,30,0,886,GLITTER
3/18/24,15:36:26,009,4,test_fi_as1,71,blank3,0,0,788,0
3/18/24,15:36:26,009,4,test_fi_as1,72,fi_as1,30,0,922,WINDOW
3/18/24,15:36:26,009,4,test_fi_as1,73,blank4,0,0,906,0
3/18/24,15:36:26,009,4,test_fi_as1,74,fi_as1,30,0,887,MUTTER
3/18/24,15:36:26,009,4,test_fi_as1,75,blank9,0,0,1494,0
3/18/24,15:36:26,009,4,test_fi_as1,76,fi_as1,38,0,1101,CLAPPING
3/18/24,15:36:26,009,4,test_fi_as1,77,blank10,0,0,1612,0
3/18/24,15:36:26,009,4,test_fi_as1,78,fi_as1,38,0,997,DAMPER
3/18/24,15:36:26,009,4,test_fi_as1,79,blank4,0,0,906,0
3/18/24,15:36:26,009,4,test_fi_as1,80,fi_as1,30,0,639,HOTEL
3/18/24,15:36:26,009,5,test_fi_as2,1,blank_1st,0,0,1500,0
3/18/24,15:36:26,009,5,test_fi_as2,2,fi_as2,38,0,5027,IMPACT
3/18/24,15:36:26,009,5,test_fi_as2,3,blank1,0,0,553,0
3/18/24,15:36:26,009,5,test_fi_as2,4,fi_as2,38,0,961,CARTOON
3/18/24,15:36:26,009,5,test_fi_as2,5,blank5,0,0,1024,0
3/18/24,15:36:26,009,5,test_fi_as2,6,fi_as2,38,0,456,BAGEL
3/18/24,15:36:26,009,5,test_fi_as2,7,blank7,0,0,1259,0
3/18/24,15:36:26,009,5,test_fi_as2,8,fi_as2,38,0,498,HAMMER
3/18/24,15:36:26,009,5,test_fi_as2,9,blank2,0,0,671,0
3/18/24,15:36:26,009,5,test_fi_as2,10,fi_as2,30,0,1147,LESSON
3/18/24,15:36:26,009,5,test_fi_as2,11,blank2,0,0,671,0
3/18/24,15:36:26,009,5,test_fi_as2,12,fi_as2,30,0,881,GUILTY
3/18/24,15:36:26,009,5,test_fi_as2,13,blank7,0,0,1259,0
3/18/24,15:36:26,009,5,test_fi_as2,14,fi_as2,38,0,1105,PAPER
3/18/24,15:36:26,009,5,test_fi_as2,15,blank6,0,0,1141,0
3/18/24,15:36:26,009,5,test_fi_as2,16,fi_as2,30,0,821,DINNER
3/18/24,15:36:26,009,5,test_fi_as2,17,blank4,0,0,906,0
3/18/24,15:36:26,009,5,test_fi_as2,18,fi_as2,30,0,2798,SCORPION
3/18/24,15:36:26,009,5,test_fi_as2,19,blank3,0,0,788,0
3/18/24,15:36:26,009,5,test_fi_as2,20,fi_as2,30,0,937,TENTH
3/18/24,15:36:26,009,5,test_fi_as2,21,blank3,0,0,788,0
3/18/24,15:36:26,009,5,test_fi_as2,22,fi_as2,30,0,795,IMPLORE
3/18/24,15:36:26,009,5,test_fi_as2,23,blank4,0,0,906,0
3/18/24,15:36:26,009,5,test_fi_as2,24,fi_as2,30,0,766,LIGHT
3/18/24,15:36:26,009,5,test_fi_as2,25,blank10,0,0,1612,0
3/18/24,15:36:26,009,5,test_fi_as2,26,fi_as2,30,0,603,BUSHES
3/18/24,15:36:26,009,5,test_fi_as2,27,blank7,0,0,1259,0
3/18/24,15:36:26,009,5,test_fi_as2,28,fi_as2,30,0,758,CHESS
3/18/24,15:36:26,009,5,test_fi_as2,29,blank8,0,0,1376,0
3/18/24,15:36:26,009,5,test_fi_as2,30,fi_as2,38,0,1215,CRACKER
3/18/24,15:36:26,009,5,test_fi_as2,31,blank4,0,0,906,0
3/18/24,15:36:26,009,5,test_fi_as2,32,fi_as2,30,0,1191,PUPPY
3/18/24,15:36:26,009,5,test_fi_as2,33,blank7,0,0,1259,0
3/18/24,15:36:26,009,5,test_fi_as2,34,fi_as2,30,0,1139,SUNNY
3/18/24,15:36:26,009,5,test_fi_as2,35,blank2,0,0,671,0
3/18/24,15:36:26,009,5,test_fi_as2,36,fi_as2,30,0,872,SWITCH
3/18/24,15:36:26,009,5,test_fi_as2,37,blank6,0,0,1141,0
3/18/24,15:36:26,009,5,test_fi_as2,38,fi_as2,30,0,798,GRIND
3/18/24,15:36:26,009,5,test_fi_as2,39,blank8,0,0,1376,0
3/18/24,15:36:26,009,5,test_fi_as2,40,fi_as2,30,0,628,JUNGLE
3/18/24,15:36:26,009,5,test_fi_as2,41,blank9,0,0,1494,0
3/18/24,15:36:26,009,5,test_fi_as2,42,fi_as2,30,0,686,WOOLLEY
3/18/24,15:36:26,009,5,test_fi_as2,43,blank10,0,0,1612,0
3/18/24,15:36:26,009,5,test_fi_as2,44,fi_as2,30,0,727,RUSTLING
3/18/24,15:36:26,009,5,test_fi_as2,45,blank6,0,0,1141,0
3/18/24,15:36:26,009,5,test_fi_as2,46,fi_as2,30,0,571,GROSS
3/18/24,15:36:26,009,5,test_fi_as2,47,blank5,0,0,1024,0
3/18/24,15:36:26,009,5,test_fi_as2,48,fi_as2,30,0,713,WINTER
3/18/24,15:36:26,009,5,test_fi_as2,49,blank3,0,0,788,0
3/18/24,15:36:26,009,5,test_fi_as2,50,fi_as2,38,0,1108,FLASH
3/18/24,15:36:26,009,5,test_fi_as2,51,blank9,0,0,1494,0
3/18/24,15:36:26,009,5,test_fi_as2,52,fi_as2,30,0,969,PUDDING
3/18/24,15:36:26,009,5,test_fi_as2,53,blank10,0,0,1612,0
3/18/24,15:36:26,009,5,test_fi_as2,54,fi_as2,30,0,2134,SMITH
3/18/24,15:36:26,009,5,test_fi_as2,55,blank1,0,0,553,0
3/18/24,15:36:26,009,5,test_fi_as2,56,fi_as2,38,0,1071,MAILED
3/18/24,15:36:26,009,5,test_fi_as2,57,blank5,0,0,1024,0
3/18/24,15:36:26,009,5,test_fi_as2,58,fi_as2,30,0,1097,COPING
3/18/24,15:36:26,009,5,test_fi_as2,59,blank4,0,0,906,0
3/18/24,15:36:26,009,5,test_fi_as2,60,fi_as2,30,0,583,ZIPPER
3/18/24,15:36:26,009,5,test_fi_as2,61,blank1,0,0,553,0
3/18/24,15:36:26,009,5,test_fi_as2,62,fi_as2,30,0,801,GETTING
3/18/24,15:36:26,009,5,test_fi_as2,63,blank1,0,0,553,0
3/18/24,15:36:26,009,5,test_fi_as2,64,fi_as2,30,0,1130,RUSTLE
3/18/24,15:36:26,009,5,test_fi_as2,65,blank2,0,0,671,0
3/18/24,15:36:26,009,5,test_fi_as2,66,fi_as2,38,0,1135,STAMPS
3/18/24,15:36:26,009,5,test_fi_as2,67,blank9,0,0,1494,0
3/18/24,15:36:26,009,5,test_fi_as2,68,fi_as2,38,0,2259,STRANGE
3/18/24,15:36:26,009,5,test_fi_as2,69,blank3,0,0,788,0
3/18/24,15:36:26,009,5,test_fi_as2,70,fi_as2,30,0,2093,FEEDER
3/18/24,15:36:26,009,5,test_fi_as2,71,blank9,0,0,1494,0
3/18/24,15:36:26,009,5,test_fi_as2,72,fi_as2,30,0,4128,REPTILE
3/18/24,15:36:26,009,5,test_fi_as2,73,blank10,0,0,1612,0
3/18/24,15:36:26,009,5,test_fi_as2,74,fi_as2,30,0,833,FISHER
3/18/24,15:36:26,009,5,test_fi_as2,75,blank8,0,0,1376,0
3/18/24,15:36:26,009,5,test_fi_as2,76,fi_as2,30,0,998,NOBLE
3/18/24,15:36:26,009,5,test_fi_as2,77,blank5,0,0,1024,0
3/18/24,15:36:26,009,5,test_fi_as2,78,fi_as2,30,0,795,WINGS
3/18/24,15:36:26,009,5,test_fi_as2,79,blank6,0,0,1141,0
3/18/24,15:36:26,009,5,test_fi_as2,80,fi_as2,38,0,1107,FABRIC
3/18/24,15:36:26,009,6,SMf2_Abr,1,SMf2_Abr12,SMf_Pos7,0,5526,
3/18/24,15:36:26,009,6,SMf2_Abr,2,SMf2_Abr2,SMf_Pos15,0,3151,
3/18/24,15:36:26,009,6,SMf2_Abr,3,SMf2_Abr4,y21,1,3811,b
3/18/24,15:36:26,009,6,SMf2_Abr,4,SMf2_Abr3,q17,0,4706,b
3/18/24,15:36:26,009,6,SMf2_Abr,5,SMf2_Abr8,SMf_Pos6,0,2053,
3/18/24,15:36:26,009,6,SMf2_Abr,6,SMf2_Abr6,m15,0,4935,b
3/18/24,15:36:26,009,6,SMf2_Abr,7,SMf2_Abr1,h13,0,5664,b
3/18/24,15:36:26,009,6,SMf2_Abr,8,SMf2_Abr10,SMf_Pos7,0,4194,
3/18/24,15:36:26,009,6,SMf2_Abr,9,SMf2_Abr11,SMf_Pos2,0,5090,
3/18/24,15:36:26,009,6,SMf2_Abr,10,SMf2_Abr9,j14,0,4380,b
3/18/24,15:36:26,009,6,SMf2_Abr,11,SMf2_Abr7,s19,0,8613,b
3/18/24,15:36:26,009,6,SMf2_Abr,12,SMf2_Abr5,SMf_Pos11,0,1875,
3/18/24,15:52:37,010,1,SMf2Practice,1,achtung,0,0,1700,Attention!
3/18/24,15:52:37,010,1,SMf2Practice,2,SMf2_P_T1,0,0,2800,a
3/18/24,15:52:37,010,1,SMf2Practice,3,SMf2_P_T2,0,0,2800,i
3/18/24,15:52:37,010,1,SMf2Practice,4,SMf2_P_T3,0,0,2800,u
3/18/24,15:52:37,010,2,SMf2Practice_Abr,1,SMf2_P_Abr1,SMf_Pos9,1,2105,
3/18/24,15:52:37,010,2,SMf2Practice_Abr,2,SMf2_P_Abr2,a11,0,2324,u
3/18/24,15:52:37,010,2,SMf2Practice_Abr,3,SMf2_P_Abr3,SMf_Pos12,1,1557,
3/18/24,15:52:37,010,3,SMf2,1,achtung,0,0,1700,Attention!
3/18/24,15:52:37,010,3,SMf2,2,SMf2_T1,0,0,2800,c
3/18/24,15:52:37,010,3,SMf2,3,SMf2_T2,0,0,2800,r
3/18/24,15:52:37,010,3,SMf2,4,SMf2_T3,0,0,2800,s
3/18/24,15:52:37,010,3,SMf2,5,SMf2_T4,0,0,2800,f
3/18/24,15:52:37,010,3,SMf2,6,SMf2_T5,0,0,2800,h
3/18/24,15:52:37,010,3,SMf2,7,SMf2_T6,0,0,2800,q
3/18/24,15:52:37,010,3,SMf2,8,SMf2_T7,0,0,2800,b
3/18/24,15:52:37,010,3,SMf2,9,SMf2_T8,0,0,2800,j
3/18/24,15:52:37,010,3,SMf2,10,SMf2_T9,0,0,2800,y
3/18/24,15:52:37,010,3,SMf2,11,SMf2_T10,0,0,2800,o
3/18/24,15:52:37,010,3,SMf2,12,SMf2_T11,0,0,2800,m
3/18/24,15:52:37,010,3,SMf2,13,SMf2_T12,0,0,2800,x
3/18/24,15:52:37,010,4,test_fi_as1,1,blank_1st,0,0,1500,0
3/18/24,15:52:37,010,4,test_fi_as1,2,fi_as1,30,0,11779,BRUTE
3/18/24,15:52:37,010,4,test_fi_as1,3,blank4,0,0,906,0
3/18/24,15:52:37,010,4,test_fi_as1,4,fi_as1,30,0,1776,RICHTER
3/18/24,15:52:37,010,4,test_fi_as1,5,blank1,0,0,553,0
3/18/24,15:52:37,010,4,test_fi_as1,6,fi_as1,30,0,1840,HOUSE
3/18/24,15:52:37,010,4,test_fi_as1,7,blank6,0,0,1141,0
3/18/24,15:52:37,010,4,test_fi_as1,8,fi_as1,30,0,1508,PRIESTS
3/18/24,15:52:37,010,4,test_fi_as1,9,blank4,0,0,906,0
3/18/24,15:52:37,010,4,test_fi_as1,10,fi_as1,30,0,1921,PEPPER
3/18/24,15:52:37,010,4,test_fi_as1,11,blank10,0,0,1612,0
3/18/24,15:52:37,010,4,test_fi_as1,12,fi_as1,30,0,1711,WOBBLY
3/18/24,15:52:37,010,4,test_fi_as1,13,blank7,0,0,1259,0
3/18/24,15:52:37,010,4,test_fi_as1,14,fi_as1,38,0,2524,BARNDOOR
3/18/24,15:52:37,010,4,test_fi_as1,15,blank2,0,0,671,0
3/18/24,15:52:37,010,4,test_fi_as1,16,fi_as1,30,0,1880,PUDDING
3/18/24,15:52:37,010,4,test_fi_as1,17,blank9,0,0,1494,0
3/18/24,15:52:37,010,4,test_fi_as1,18,fi_as1,38,0,1372,CARROT
3/18/24,15:52:37,010,4,test_fi_as1,19,blank6,0,0,1141,0
3/18/24,15:52:37,010,4,test_fi_as1,20,fi_as1,30,0,1620,DOCTOR
3/18/24,15:52:37,010,4,test_fi_as1,21,blank3,0,0,788,0
3/18/24,15:52:37,010,4,test_fi_as1,22,fi_as1,38,0,1176,METAL
3/18/24,15:52:37,010,4,test_fi_as1,23,blank6,0,0,1141,0
3/18/24,15:52:37,010,4,test_fi_as1,24,fi_as1,30,0,1729,RULER
3/18/24,15:52:37,010,4,test_fi_as1,25,blank6,0,0,1141,0
3/18/24,15:52:37,010,4,test_fi_as1,26,fi_as1,30,0,1658,LURCH
3/18/24,15:52:37,010,4,test_fi_as1,27,blank9,0,0,1494,0
3/18/24,15:52:37,010,4,test_fi_as1,28,fi_as1,38,0,1296,GRAVEL
3/18/24,15:52:37,010,4,test_fi_as1,29,blank4,0,0,906,0
3/18/24,15:52:37,010,4,test_fi_as1,30,fi_as1,30,0,1310,SEEDING
3/18/24,15:52:37,010,4,test_fi_as1,31,blank4,0,0,906,0
3/18/24,15:52:37,010,4,test_fi_as1,32,fi_as1,30,0,2203,VOGUE
3/18/24,15:52:37,010,4,test_fi_as1,33,blank2,0,0,671,0
3/18/24,15:52:37,010,4,test_fi_as1,34,fi_as1,38,0,948,PLAIN
3/18/24,15:52:37,010,4,test_fi_as1,35,blank8,0,0,1376,0
3/18/24,15:52:37,010,4,test_fi_as1,36,fi_as1,30,0,1173,GOGGLE
3/18/24,15:52:37,010,4,test_fi_as1,37,blank5,0,0,1024,0
3/18/24,15:52:37,010,4,test_fi_as1,38,fi_as1,30,0,1466,ZIPPER
3/18/24,15:52:37,010,4,test_fi_as1,39,blank7,0,0,1259,0
3/18/24,15:52:37,010,4,test_fi_as1,40,fi_as1,30,0,1520,GOLDEN
3/18/24,15:52:37,010,4,test_fi_as1,41,blank5,0,0,1024,0
3/18/24,15:52:37,010,4,test_fi_as1,42,fi_as1,30,0,1639,FUELS
3/18/24,15:52:37,010,4,test_fi_as1,43,blank8,0,0,1376,0
3/18/24,15:52:37,010,4,test_fi_as1,44,fi_as1,30,0,1219,BOSTON
3/18/24,15:52:37,010,4,test_fi_as1,45,blank2,0,0,671,0
3/18/24,15:52:37,010,4,test_fi_as1,46,fi_as1,38,0,1333,FLAME
3/18/24,15:52:37,010,4,test_fi_as1,47,blank1,0,0,553,0
3/18/24,15:52:37,010,4,test_fi_as1,48,fi_as1,30,0,1519,RESCUE
3/18/24,15:52:37,010,4,test_fi_as1,49,blank1,0,0,553,0
3/18/24,15:52:37,010,4,test_fi_as1,50,fi_as1,30,0,994,CLINGING
3/18/24,15:52:37,010,4,test_fi_as1,51,blank10,0,0,1612,0
3/18/24,15:52:37,010,4,test_fi_as1,52,fi_as1,30,0,1663,BETTOR
3/18/24,15:52:37,010,4,test_fi_as1,53,blank3,0,0,788,0
3/18/24,15:52:37,010,4,test_fi_as1,54,fi_as1,38,0,1250,ORGANS
3/18/24,15:52:37,010,4,test_fi_as1,55,blank10,0,0,1612,0
3/18/24,15:52:37,010,4,test_fi_as1,56,fi_as1,30,0,1828,SCHOOL
3/18/24,15:52:37,010,4,test_fi_as1,57,blank9,0,0,1494,0
3/18/24,15:52:37,010,4,test_fi_as1,58,fi_as1,30,0,2866,COPPER
3/18/24,15:52:37,010,4,test_fi_as1,59,blank7,0,0,1259,0
3/18/24,15:52:37,010,4,test_fi_as1,60,fi_as1,30,0,1294,CUTEY
3/18/24,15:52:37,010,4,test_fi_as1,61,blank3,0,0,788,0
3/18/24,15:52:37,010,4,test_fi_as1,62,fi_as1,30,0,945,BUTTER
3/18/24,15:52:37,010,4,test_fi_as1,63,blank5,0,0,1024,0
3/18/24,15:52:37,010,4,test_fi_as1,64,fi_as1,38,0,1280,ORANGE
3/18/24,15:52:37,010,4,test_fi_as1,65,blank2,0,0,671,0
3/18/24,15:52:37,010,4,test_fi_as1,66,fi_as1,30,0,1216,COUCH
3/18/24,15:52:37,010,4,test_fi_as1,67,blank7,0,0,1259,0
3/18/24,15:52:37,010,4,test_fi_as1,68,fi_as1,30,0,706,INSECT
3/18/24,15:52:37,010,4,test_fi_as1,69,blank5,0,0,1024,0
3/18/24,15:52:37,010,4,test_fi_as1,70,fi_as1,30,0,1003,GLITTER
3/18/24,15:52:37,010,4,test_fi_as1,71,blank8,0,0,1376,0
3/18/24,15:52:37,010,4,test_fi_as1,72,fi_as1,30,0,970,WINDOW
3/18/24,15:52:37,010,4,test_fi_as1,73,blank3,0,0,788,0
3/18/24,15:52:37,010,4,test_fi_as1,74,fi_as1,30,0,610,MUTTER
3/18/24,15:52:37,010,4,test_fi_as1,75,blank9,0,0,1494,0
3/18/24,15:52:37,010,4,test_fi_as1,76,fi_as1,38,0,1083,CLAPPING
3/18/24,15:52:37,010,4,test_fi_as1,77,blank10,0,0,1612,0
3/18/24,15:52:37,010,4,test_fi_as1,78,fi_as1,38,0,1084,DAMPER
3/18/24,15:52:37,010,4,test_fi_as1,79,blank8,0,0,1376,0
3/18/24,15:52:37,010,4,test_fi_as1,80,fi_as1,30,0,1207,HOTEL
3/18/24,15:52:37,010,5,test_fi_as2,1,blank_1st,0,0,1500,0
3/18/24,15:52:37,010,5,test_fi_as2,2,fi_as2,38,0,1459,IMPACT
3/18/24,15:52:37,010,5,test_fi_as2,3,blank6,0,0,1141,0
3/18/24,15:52:37,010,5,test_fi_as2,4,fi_as2,38,0,2871,CARTOON
3/18/24,15:52:37,010,5,test_fi_as2,5,blank9,0,0,1494,0
3/18/24,15:52:37,010,5,test_fi_as2,6,fi_as2,38,0,1073,BAGEL
3/18/24,15:52:37,010,5,test_fi_as2,7,blank4,0,0,906,0
3/18/24,15:52:37,010,5,test_fi_as2,8,fi_as2,38,0,960,HAMMER
3/18/24,15:52:37,010,5,test_fi_as2,9,blank7,0,0,1259,0
3/18/24,15:52:37,010,5,test_fi_as2,10,fi_as2,30,0,1421,LESSON
3/18/24,15:52:37,010,5,test_fi_as2,11,blank8,0,0,1376,0
3/18/24,15:52:37,010,5,test_fi_as2,12,fi_as2,30,0,2441,GUILTY
3/18/24,15:52:37,010,5,test_fi_as2,13,blank8,0,0,1376,0
3/18/24,15:52:37,010,5,test_fi_as2,14,fi_as2,38,0,1523,PAPER
3/18/24,15:52:37,010,5,test_fi_as2,15,blank5,0,0,1024,0
3/18/24,15:52:37,010,5,test_fi_as2,16,fi_as2,30,0,1306,DINNER
3/18/24,15:52:37,010,5,test_fi_as2,17,blank5,0,0,1024,0
3/18/24,15:52:37,010,5,test_fi_as2,18,fi_as2,30,0,2018,SCORPION
3/18/24,15:52:37,010,5,test_fi_as2,19,blank7,0,0,1259,0
3/18/24,15:52:37,010,5,test_fi_as2,20,fi_as2,30,0,1058,TENTH
3/18/24,15:52:37,010,5,test_fi_as2,21,blank6,0,0,1141,0
3/18/24,15:52:37,010,5,test_fi_as2,22,fi_as2,30,0,903,IMPLORE
3/18/24,15:52:37,010,5,test_fi_as2,23,blank1,0,0,553,0
3/18/24,15:52:37,010,5,test_fi_as2,24,fi_as2,30,0,2643,LIGHT
3/18/24,15:52:37,010,5,test_fi_as2,25,blank2,0,0,671,0
3/18/24,15:52:37,010,5,test_fi_as2,26,fi_as2,30,0,1114,BUSHES
3/18/24,15:52:37,010,5,test_fi_as2,27,blank10,0,0,1612,0
3/18/24,15:52:37,010,5,test_fi_as2,28,fi_as2,30,0,962,CHESS
3/18/24,15:52:37,010,5,test_fi_as2,29,blank4,0,0,906,0
3/18/24,15:52:37,010,5,test_fi_as2,30,fi_as2,38,0,1310,CRACKER
3/18/24,15:52:37,010,5,test_fi_as2,31,blank2,0,0,671,0
3/18/24,15:52:37,010,5,test_fi_as2,32,fi_as2,30,0,1285,PUPPY
3/18/24,15:52:37,010,5,test_fi_as2,33,blank1,0,0,553,0
3/18/24,15:52:37,010,5,test_fi_as2,34,fi_as2,30,0,4505,SUNNY
3/18/24,15:52:37,010,5,test_fi_as2,35,blank6,0,0,1141,0
3/18/24,15:52:37,010,5,test_fi_as2,36,fi_as2,30,0,694,SWITCH
3/18/24,15:52:37,010,5,test_fi_as2,37,blank7,0,0,1259,0
3/18/24,15:52:37,010,5,test_fi_as2,38,fi_as2,30,0,518,GRIND
3/18/24,15:52:37,010,5,test_fi_as2,39,blank7,0,0,1259,0
3/18/24,15:52:37,010,5,test_fi_as2,40,fi_as2,30,0,550,JUNGLE
3/18/24,15:52:37,010,5,test_fi_as2,41,blank5,0,0,1024,0
3/18/24,15:52:37,010,5,test_fi_as2,42,fi_as2,30,0,725,WOOLLEY
3/18/24,15:52:37,010,5,test_fi_as2,43,blank9,0,0,1494,0
3/18/24,15:52:37,010,5,test_fi_as2,44,fi_as2,30,0,721,RUSTLING
3/18/24,15:52:37,010,5,test_fi_as2,45,blank1,0,0,553,0
3/18/24,15:52:37,010,5,test_fi_as2,46,fi_as2,30,0,589,GROSS
3/18/24,15:52:37,010,5,test_fi_as2,47,blank8,0,0,1376,0
3/18/24,15:52:37,010,5,test_fi_as2,48,fi_as2,30,0,461,WINTER
3/18/24,15:52:37,010,5,test_fi_as2,49,blank3,0,0,788,0
3/18/24,15:52:37,010,5,test_fi_as2,50,fi_as2,38,0,1123,FLASH
3/18/24,15:52:37,010,5,test_fi_as2,51,blank9,0,0,1494,0
3/18/24,15:52:37,010,5,test_fi_as2,52,fi_as2,30,0,959,PUDDING
3/18/24,15:52:37,010,5,test_fi_as2,53,blank3,0,0,788,0
3/18/24,15:52:37,010,5,test_fi_as2,54,fi_as2,30,0,896,SMITH
3/18/24,15:52:37,010,5,test_fi_as2,55,blank4,0,0,906,0
3/18/24,15:52:37,010,5,test_fi_as2,56,fi_as2,38,0,958,MAILED
3/18/24,15:52:37,010,5,test_fi_as2,57,blank10,0,0,1612,0
3/18/24,15:52:37,010,5,test_fi_as2,58,fi_as2,30,0,916,COPING
3/18/24,15:52:37,010,5,test_fi_as2,59,blank10,0,0,1612,0
3/18/24,15:52:37,010,5,test_fi_as2,60,fi_as2,30,0,1004,ZIPPER
3/18/24,15:52:37,010,5,test_fi_as2,61,blank2,0,0,671,0
3/18/24,15:52:37,010,5,test_fi_as2,62,fi_as2,30,0,1535,GETTING
3/18/24,15:52:37,010,5,test_fi_as2,63,blank1,0,0,553,0
3/18/24,15:52:37,010,5,test_fi_as2,64,fi_as2,30,0,953,RUSTLE
3/18/24,15:52:37,010,5,test_fi_as2,65,blank2,0,0,671,0
3/18/24,15:52:37,010,5,test_fi_as2,66,fi_as2,38,0,1079,STAMPS
3/18/24,15:52:37,010,5,test_fi_as2,67,blank4,0,0,906,0
3/18/24,15:52:37,010,5,test_fi_as2,68,fi_as2,38,0,966,STRANGE
3/18/24,15:52:37,010,5,test_fi_as2,69,blank10,0,0,1612,0
3/18/24,15:52:37,010,5,test_fi_as2,70,fi_as2,30,0,906,FEEDER
3/18/24,15:52:37,010,5,test_fi_as2,71,blank3,0,0,788,0
3/18/24,15:52:37,010,5,test_fi_as2,72,fi_as2,30,0,1005,REPTILE
3/18/24,15:52:37,010,5,test_fi_as2,73,blank5,0,0,1024,0
3/18/24,15:52:37,010,5,test_fi_as2,74,fi_as2,30,0,1178,FISHER
3/18/24,15:52:37,010,5,test_fi_as2,75,blank6,0,0,1141,0
3/18/24,15:52:37,010,5,test_fi_as2,76,fi_as2,30,0,963,NOBLE
3/18/24,15:52:37,010,5,test_fi_as2,77,blank9,0,0,1494,0
3/18/24,15:52:37,010,5,test_fi_as2,78,fi_as2,30,0,1006,WINGS
3/18/24,15:52:37,010,5,test_fi_as2,79,blank8,0,0,1376,0
3/18/24,15:52:37,010,5,test_fi_as2,80,fi_as2,38,0,1468,FABRIC
3/18/24,15:52:37,010,6,SMf2_Abr,1,SMf2_Abr12,SMf_Pos14,1,7290,
3/18/24,15:52:37,010,6,SMf2_Abr,2,SMf2_Abr2,SMf_Pos6,0,10136,
3/18/24,15:52:37,010,6,SMf2_Abr,3,SMf2_Abr4,y21,1,17869,b
3/18/24,15:52:37,010,6,SMf2_Abr,4,SMf2_Abr3,s19,0,10630,b
3/18/24,15:52:37,010,6,SMf2_Abr,5,SMf2_Abr8,SMf_Pos6,0,5176,
3/18/24,15:52:37,010,6,SMf2_Abr,6,SMf2_Abr6,c11,0,4318,b
3/18/24,15:52:37,010,6,SMf2_Abr,7,SMf2_Abr1,s19,0,7825,b
3/18/24,15:52:37,010,6,SMf2_Abr,8,SMf2_Abr10,SMf_Pos10,0,5632,
3/18/24,15:52:37,010,6,SMf2_Abr,9,SMf2_Abr11,SMf_Pos13,0,5876,
3/18/24,15:52:37,010,6,SMf2_Abr,10,SMf2_Abr9,f12,1,12261,b
3/18/24,15:52:37,010,6,SMf2_Abr,11,SMf2_Abr7,r16,0,2257,b
3/18/24,15:52:37,010,6,SMf2_Abr,12,SMf2_Abr5,SMf_Pos7,0,3491,
3/19/24,14:09:23,015,1,SMf2Practice,1,achtung,0,0,1700,Attention!
3/19/24,14:09:23,015,1,SMf2Practice,2,SMf2_P_T1,0,0,2800,a
3/19/24,14:09:23,015,1,SMf2Practice,3,SMf2_P_T2,0,0,2800,i
3/19/24,14:09:23,015,1,SMf2Practice,4,SMf2_P_T3,0,0,2800,u
3/19/24,14:09:23,015,2,SMf2Practice_Abr,1,SMf2_P_Abr1,SMf_Pos9,1,2399,
3/19/24,14:09:23,015,2,SMf2Practice_Abr,2,SMf2_P_Abr2,i12,1,2878,u
3/19/24,14:09:23,015,2,SMf2Practice_Abr,3,SMf2_P_Abr3,SMf_Pos12,1,2065,
3/19/24,14:09:23,015,3,SMf2,1,achtung,0,0,1700,Attention!
3/19/24,14:09:23,015,3,SMf2,2,SMf2_T1,0,0,2800,c
3/19/24,14:09:23,015,3,SMf2,3,SMf2_T2,0,0,2800,r
3/19/24,14:09:23,015,3,SMf2,4,SMf2_T3,0,0,2800,s
3/19/24,14:09:23,015,3,SMf2,5,SMf2_T4,0,0,2800,f
3/19/24,14:09:23,015,3,SMf2,6,SMf2_T5,0,0,2800,h
3/19/24,14:09:23,015,3,SMf2,7,SMf2_T6,0,0,2800,q
3/19/24,14:09:23,015,3,SMf2,8,SMf2_T7,0,0,2800,b
3/19/24,14:09:23,015,3,SMf2,9,SMf2_T8,0,0,2800,j
3/19/24,14:09:23,015,3,SMf2,10,SMf2_T9,0,0,2800,y
3/19/24,14:09:23,015,3,SMf2,11,SMf2_T10,0,0,2800,o
3/19/24,14:09:23,015,3,SMf2,12,SMf2_T11,0,0,2800,m
3/19/24,14:09:23,015,3,SMf2,13,SMf2_T12,0,0,2800,x
3/19/24,14:09:23,015,4,test_fi_as1,1,blank_1st,0,0,1500,0
3/19/24,14:09:23,015,4,test_fi_as1,2,fi_as1,30,0,8381,BRUTE
3/19/24,14:09:23,015,4,test_fi_as1,3,blank4,0,0,906,0
3/19/24,14:09:23,015,4,test_fi_as1,4,fi_as1,30,0,2185,RICHTER
3/19/24,14:09:23,015,4,test_fi_as1,5,blank4,0,0,906,0
3/19/24,14:09:23,015,4,test_fi_as1,6,fi_as1,30,0,881,HOUSE
3/19/24,14:09:23,015,4,test_fi_as1,7,blank6,0,0,1141,0
3/19/24,14:09:23,015,4,test_fi_as1,8,fi_as1,30,0,1605,PRIESTS
3/19/24,14:09:23,015,4,test_fi_as1,9,blank7,0,0,1259,0
3/19/24,14:09:23,015,4,test_fi_as1,10,fi_as1,30,0,815,PEPPER
3/19/24,14:09:23,015,4,test_fi_as1,11,blank4,0,0,906,0
3/19/24,14:09:23,015,4,test_fi_as1,12,fi_as1,30,0,1424,WOBBLY
3/19/24,14:09:23,015,4,test_fi_as1,13,blank2,0,0,671,0
3/19/24,14:09:23,015,4,test_fi_as1,14,fi_as1,38,0,1570,BARNDOOR
3/19/24,14:09:23,015,4,test_fi_as1,15,blank3,0,0,788,0
3/19/24,14:09:23,015,4,test_fi_as1,16,fi_as1,30,0,857,PUDDING
3/19/24,14:09:23,015,4,test_fi_as1,17,blank8,0,0,1376,0
3/19/24,14:09:23,015,4,test_fi_as1,18,fi_as1,38,0,868,CARROT
3/19/24,14:09:23,015,4,test_fi_as1,19,blank6,0,0,1141,0
3/19/24,14:09:23,015,4,test_fi_as1,20,fi_as1,30,0,1226,DOCTOR
3/19/24,14:09:23,015,4,test_fi_as1,21,blank4,0,0,906,0
3/19/24,14:09:23,015,4,test_fi_as1,22,fi_as1,38,0,826,METAL
3/19/24,14:09:23,015,4,test_fi_as1,23,blank8,0,0,1376,0
3/19/24,14:09:23,015,4,test_fi_as1,24,fi_as1,30,0,976,RULER
3/19/24,14:09:23,015,4,test_fi_as1,25,blank5,0,0,1024,0
3/19/24,14:09:23,015,4,test_fi_as1,26,fi_as1,30,0,822,LURCH
3/19/24,14:09:23,015,4,test_fi_as1,27,blank9,0,0,1494,0
3/19/24,14:09:23,015,4,test_fi_as1,28,fi_as1,38,0,759,GRAVEL
3/19/24,14:09:23,015,4,test_fi_as1,29,blank1,0,0,553,0
3/19/24,14:09:23,015,4,test_fi_as1,30,fi_as1,30,0,770,SEEDING
3/19/24,14:09:23,015,4,test_fi_as1,31,blank7,0,0,1259,0
3/19/24,14:09:23,015,4,test_fi_as1,32,fi_as1,30,0,1399,VOGUE
3/19/24,14:09:23,015,4,test_fi_as1,33,blank2,0,0,671,0
3/19/24,14:09:23,015,4,test_fi_as1,34,fi_as1,38,0,690,PLAIN
3/19/24,14:09:23,015,4,test_fi_as1,35,blank6,0,0,1141,0
3/19/24,14:09:23,015,4,test_fi_as1,36,fi_as1,30,0,630,GOGGLE
3/19/24,14:09:23,015,4,test_fi_as1,37,blank1,0,0,553,0
3/19/24,14:09:23,015,4,test_fi_as1,38,fi_as1,30,0,734,ZIPPER
3/19/24,14:09:23,015,4,test_fi_as1,39,blank1,0,0,553,0
3/19/24,14:09:23,015,4,test_fi_as1,40,fi_as1,30,0,762,GOLDEN
3/19/24,14:09:23,015,4,test_fi_as1,41,blank7,0,0,1259,0
3/19/24,14:09:23,015,4,test_fi_as1,42,fi_as1,30,0,743,FUELS
3/19/24,14:09:23,015,4,test_fi_as1,43,blank9,0,0,1494,0
3/19/24,14:09:23,015,4,test_fi_as1,44,fi_as1,30,0,524,BOSTON
3/19/24,14:09:23,015,4,test_fi_as1,45,blank10,0,0,1612,0
3/19/24,14:09:23,015,4,test_fi_as1,46,fi_as1,38,0,788,FLAME
3/19/24,14:09:23,015,4,test_fi_as1,47,blank10,0,0,1612,0
3/19/24,14:09:23,015,4,test_fi_as1,48,fi_as1,30,0,889,RESCUE
3/19/24,14:09:23,015,4,test_fi_as1,49,blank9,0,0,1494,0
3/19/24,14:09:23,015,4,test_fi_as1,50,fi_as1,30,0,983,CLINGING
3/19/24,14:09:23,015,4,test_fi_as1,51,blank3,0,0,788,0
3/19/24,14:09:23,015,4,test_fi_as1,52,fi_as1,30,0,1207,BETTOR
3/19/24,14:09:23,015,4,test_fi_as1,53,blank6,0,0,1141,0
3/19/24,14:09:23,015,4,test_fi_as1,54,fi_as1,38,0,781,ORGANS
3/19/24,14:09:23,015,4,test_fi_as1,55,blank1,0,0,553,0
3/19/24,14:09:23,015,4,test_fi_as1,56,fi_as1,30,0,943,SCHOOL
3/19/24,14:09:23,015,4,test_fi_as1,57,blank8,0,0,1376,0
3/19/24,14:09:23,015,4,test_fi_as1,58,fi_as1,30,0,1095,COPPER
3/19/24,14:09:23,015,4,test_fi_as1,59,blank9,0,0,1494,0
3/19/24,14:09:23,015,4,test_fi_as1,60,fi_as1,30,0,941,CUTEY
3/19/24,14:09:23,015,4,test_fi_as1,61,blank5,0,0,1024,0
3/19/24,14:09:23,015,4,test_fi_as1,62,fi_as1,30,0,621,BUTTER
3/19/24,14:09:23,015,4,test_fi_as1,63,blank2,0,0,671,0
3/19/24,14:09:23,015,4,test_fi_as1,64,fi_as1,38,0,728,ORANGE
3/19/24,14:09:23,015,4,test_fi_as1,65,blank5,0,0,1024,0
3/19/24,14:09:23,015,4,test_fi_as1,66,fi_as1,30,0,1097,COUCH
3/19/24,14:09:23,015,4,test_fi_as1,67,blank3,0,0,788,0
3/19/24,14:09:23,015,4,test_fi_as1,68,fi_as1,30,0,1396,INSECT
3/19/24,14:09:23,015,4,test_fi_as1,69,blank10,0,0,1612,0
3/19/24,14:09:23,015,4,test_fi_as1,70,fi_as1,30,0,760,GLITTER
3/19/24,14:09:23,015,4,test_fi_as1,71,blank10,0,0,1612,0
3/19/24,14:09:23,015,4,test_fi_as1,72,fi_as1,30,0,694,WINDOW
3/19/24,14:09:23,015,4,test_fi_as1,73,blank3,0,0,788,0
3/19/24,14:09:23,015,4,test_fi_as1,74,fi_as1,30,0,1818,MUTTER
3/19/24,14:09:23,015,4,test_fi_as1,75,blank5,0,0,1024,0
3/19/24,14:09:23,015,4,test_fi_as1,76,fi_as1,38,0,684,CLAPPING
3/19/24,14:09:23,015,4,test_fi_as1,77,blank7,0,0,1259,0
3/19/24,14:09:23,015,4,test_fi_as1,78,fi_as1,38,0,724,DAMPER
3/19/24,14:09:23,015,4,test_fi_as1,79,blank2,0,0,671,0
3/19/24,14:09:23,015,4,test_fi_as1,80,fi_as1,30,0,724,HOTEL
3/19/24,14:09:23,015,5,test_fi_as2,1,blank_1st,0,0,1500,0
3/19/24,14:09:23,015,5,test_fi_as2,2,fi_as2,38,0,804,IMPACT
3/19/24,14:09:23,015,5,test_fi_as2,3,blank8,0,0,1376,0
3/19/24,14:09:23,015,5,test_fi_as2,4,fi_as2,38,0,682,CARTOON
3/19/24,14:09:23,015,5,test_fi_as2,5,blank10,0,0,1612,0
3/19/24,14:09:23,015,5,test_fi_as2,6,fi_as2,38,0,620,BAGEL
3/19/24,14:09:23,015,5,test_fi_as2,7,blank10,0,0,1612,0
3/19/24,14:09:23,015,5,test_fi_as2,8,fi_as2,38,0,624,HAMMER
3/19/24,14:09:23,015,5,test_fi_as2,9,blank6,0,0,1141,0
3/19/24,14:09:23,015,5,test_fi_as2,10,fi_as2,30,0,1655,LESSON
3/19/24,14:09:23,015,5,test_fi_as2,11,blank3,0,0,788,0
3/19/24,14:09:23,015,5,test_fi_as2,12,fi_as2,30,0,2762,GUILTY
3/19/24,14:09:23,015,5,test_fi_as2,13,blank3,0,0,788,0
3/19/24,14:09:23,015,5,test_fi_as2,14,fi_as2,38,0,679,PAPER
3/19/24,14:09:23,015,5,test_fi_as2,15,blank2,0,0,671,0
3/19/24,14:09:23,015,5,test_fi_as2,16,fi_as2,30,0,1673,DINNER
3/19/24,14:09:23,015,5,test_fi_as2,17,blank6,0,0,1141,0
3/19/24,14:09:23,015,5,test_fi_as2,18,fi_as2,30,0,1404,SCORPION
3/19/24,14:09:23,015,5,test_fi_as2,19,blank2,0,0,671,0
3/19/24,14:09:23,015,5,test_fi_as2,20,fi_as2,30,0,927,TENTH
3/19/24,14:09:23,015,5,test_fi_as2,21,blank9,0,0,1494,0
3/19/24,14:09:23,015,5,test_fi_as2,22,fi_as2,30,0,868,IMPLORE
3/19/24,14:09:23,015,5,test_fi_as2,23,blank2,0,0,671,0
3/19/24,14:09:23,015,5,test_fi_as2,24,fi_as2,30,0,613,LIGHT
3/19/24,14:09:23,015,5,test_fi_as2,25,blank4,0,0,906,0
3/19/24,14:09:23,015,5,test_fi_as2,26,fi_as2,30,0,767,BUSHES
3/19/24,14:09:23,015,5,test_fi_as2,27,blank8,0,0,1376,0
3/19/24,14:09:23,015,5,test_fi_as2,28,fi_as2,30,0,462,CHESS
3/19/24,14:09:23,015,5,test_fi_as2,29,blank6,0,0,1141,0
3/19/24,14:09:23,015,5,test_fi_as2,30,fi_as2,38,0,917,CRACKER
3/19/24,14:09:23,015,5,test_fi_as2,31,blank5,0,0,1024,0
3/19/24,14:09:23,015,5,test_fi_as2,32,fi_as2,30,0,1173,PUPPY
3/19/24,14:09:23,015,5,test_fi_as2,33,blank2,0,0,671,0
3/19/24,14:09:23,015,5,test_fi_as2,34,fi_as2,30,0,858,SUNNY
3/19/24,14:09:23,015,5,test_fi_as2,35,blank9,0,0,1494,0
3/19/24,14:09:23,015,5,test_fi_as2,36,fi_as2,30,0,785,SWITCH
3/19/24,14:09:23,015,5,test_fi_as2,37,blank4,0,0,906,0
3/19/24,14:09:23,015,5,test_fi_as2,38,fi_as2,30,0,908,GRIND
3/19/24,14:09:23,015,5,test_fi_as2,39,blank3,0,0,788,0
3/19/24,14:09:23,015,5,test_fi_as2,40,fi_as2,30,0,775,JUNGLE
3/19/24,14:09:23,015,5,test_fi_as2,41,blank4,0,0,906,0
3/19/24,14:09:23,015,5,test_fi_as2,42,fi_as2,30,0,514,WOOLLEY
3/19/24,14:09:23,015,5,test_fi_as2,43,blank5,0,0,1024,0
3/19/24,14:09:23,015,5,test_fi_as2,44,fi_as2,30,0,819,RUSTLING
3/19/24,14:09:23,015,5,test_fi_as2,45,blank10,0,0,1612,0
3/19/24,14:09:23,015,5,test_fi_as2,46,fi_as2,30,0,694,GROSS
3/19/24,14:09:23,015,5,test_fi_as2,47,blank8,0,0,1376,0
3/19/24,14:09:23,015,5,test_fi_as2,48,fi_as2,30,0,1074,WINTER
3/19/24,14:09:23,015,5,test_fi_as2,49,blank7,0,0,1259,0
3/19/24,14:09:23,015,5,test_fi_as2,50,fi_as2,38,0,802,FLASH
3/19/24,14:09:23,015,5,test_fi_as2,51,blank9,0,0,1494,0
3/19/24,14:09:23,015,5,test_fi_as2,52,fi_as2,30,0,595,PUDDING
3/19/24,14:09:23,015,5,test_fi_as2,53,blank4,0,0,906,0
3/19/24,14:09:23,015,5,test_fi_as2,54,fi_as2,30,0,631,SMITH
3/19/24,14:09:23,015,5,test_fi_as2,55,blank9,0,0,1494,0
3/19/24,14:09:23,015,5,test_fi_as2,56,fi_as2,38,0,759,MAILED
3/19/24,14:09:23,015,5,test_fi_as2,57,blank5,0,0,1024,0
3/19/24,14:09:23,015,5,test_fi_as2,58,fi_as2,30,0,742,COPING
3/19/24,14:09:23,015,5,test_fi_as2,59,blank5,0,0,1024,0
3/19/24,14:09:23,015,5,test_fi_as2,60,fi_as2,30,0,654,ZIPPER
3/19/24,14:09:23,015,5,test_fi_as2,61,blank7,0,0,1259,0
3/19/24,14:09:23,015,5,test_fi_as2,62,fi_as2,30,0,552,GETTING
3/19/24,14:09:23,015,5,test_fi_as2,63,blank10,0,0,1612,0
3/19/24,14:09:23,015,5,test_fi_as2,64,fi_as2,30,0,823,RUSTLE
3/19/24,14:09:23,015,5,test_fi_as2,65,blank6,0,0,1141,0
3/19/24,14:09:23,015,5,test_fi_as2,66,fi_as2,38,0,758,STAMPS
3/19/24,14:09:23,015,5,test_fi_as2,67,blank7,0,0,1259,0
3/19/24,14:09:23,015,5,test_fi_as2,68,fi_as2,38,0,683,STRANGE
3/19/24,14:09:23,015,5,test_fi_as2,69,blank1,0,0,553,0
3/19/24,14:09:23,015,5,test_fi_as2,70,fi_as2,38,0,585,FEEDER
3/19/24,14:09:23,015,5,test_fi_as2,71,blank1,0,0,553,0
3/19/24,14:09:23,015,5,test_fi_as2,72,fi_as2,30,0,787,REPTILE
3/19/24,14:09:23,015,5,test_fi_as2,73,blank1,0,0,553,0
3/19/24,14:09:23,015,5,test_fi_as2,74,fi_as2,30,0,684,FISHER
3/19/24,14:09:23,015,5,test_fi_as2,75,blank1,0,0,553,0
3/19/24,14:09:23,015,5,test_fi_as2,76,fi_as2,30,0,3146,NOBLE
3/19/24,14:09:23,015,5,test_fi_as2,77,blank7,0,0,1259,0
3/19/24,14:09:23,015,5,test_fi_as2,78,fi_as2,30,0,739,WINGS
3/19/24,14:09:23,015,5,test_fi_as2,79,blank8,0,0,1376,0
3/19/24,14:09:23,015,5,test_fi_as2,80,fi_as2,38,0,852,FABRIC
3/19/24,14:09:23,015,6,SMf2_Abr,1,SMf2_Abr12,SMf_Pos14,1,5334,
3/19/24,14:09:23,015,6,SMf2_Abr,2,SMf2_Abr2,SMf_Pos5,1,5606,
3/19/24,14:09:23,015,6,SMf2_Abr,3,SMf2_Abr4,r16,0,23522,b
3/19/24,14:09:23,015,6,SMf2_Abr,4,SMf2_Abr3,s19,0,2902,b
3/19/24,14:09:23,015,6,SMf2_Abr,5,SMf2_Abr8,SMf_Pos10,1,2821,
3/19/24,14:09:23,015,6,SMf2_Abr,6,SMf2_Abr6,x20,0,4934,b
3/19/24,14:09:23,015,6,SMf2_Abr,7,SMf2_Abr1,c11,1,2367,b
3/19/24,14:09:23,015,6,SMf2_Abr,8,SMf2_Abr10,SMf_Pos12,1,2044,
3/19/24,14:09:23,015,6,SMf2_Abr,9,SMf2_Abr11,SMf_Pos11,0,2471,
3/19/24,14:09:23,015,6,SMf2_Abr,10,SMf2_Abr9,h13,0,4351,b
3/19/24,14:09:23,015,6,SMf2_Abr,11,SMf2_Abr7,q17,1,3936,b
3/19/24,14:09:23,015,6,SMf2_Abr,12,SMf2_Abr5,SMf_Pos9,0,2227,
3/19/24,14:14:01,016,1,SMf2Practice,1,achtung,0,0,1700,Attention!
3/19/24,14:14:01,016,1,SMf2Practice,2,SMf2_P_T1,0,0,2800,a
3/19/24,14:14:01,016,1,SMf2Practice,3,SMf2_P_T2,0,0,2800,i
3/19/24,14:14:01,016,1,SMf2Practice,4,SMf2_P_T3,0,0,2800,u
3/19/24,14:14:01,016,2,SMf2Practice_Abr,1,SMf2_P_Abr1,SMf_Pos9,1,2191,
3/19/24,14:14:01,016,2,SMf2Practice_Abr,2,SMf2_P_Abr2,i12,1,2582,u
3/19/24,14:14:01,016,2,SMf2Practice_Abr,3,SMf2_P_Abr3,SMf_Pos12,1,1358,
3/19/24,14:14:01,016,3,SMf2,1,achtung,0,0,1700,Attention!
3/19/24,14:14:01,016,3,SMf2,2,SMf2_T1,0,0,2800,c
3/19/24,14:14:01,016,3,SMf2,3,SMf2_T2,0,0,2800,r
3/19/24,14:14:01,016,3,SMf2,4,SMf2_T3,0,0,2800,s
3/19/24,14:14:01,016,3,SMf2,5,SMf2_T4,0,0,2800,f
3/19/24,14:14:01,016,3,SMf2,6,SMf2_T5,0,0,2800,h
3/19/24,14:14:01,016,3,SMf2,7,SMf2_T6,0,0,2800,q
3/19/24,14:14:01,016,3,SMf2,8,SMf2_T7,0,0,2800,b
3/19/24,14:14:01,016,3,SMf2,9,SMf2_T8,0,0,2800,j
3/19/24,14:14:01,016,3,SMf2,10,SMf2_T9,0,0,2800,y
3/19/24,14:14:01,016,3,SMf2,11,SMf2_T10,0,0,2800,o
3/19/24,14:14:01,016,3,SMf2,12,SMf2_T11,0,0,2800,m
3/19/24,14:14:01,016,3,SMf2,13,SMf2_T12,0,0,2800,x
3/19/24,14:14:01,016,4,test_fi_as1,1,blank_1st,0,0,1500,0
3/19/24,14:14:01,016,4,test_fi_as1,2,fi_as1,30,0,9897,BRUTE
3/19/24,14:14:01,016,4,test_fi_as1,3,blank6,0,0,1141,0
3/19/24,14:14:01,016,4,test_fi_as1,4,fi_as1,30,0,3698,RICHTER
3/19/24,14:14:01,016,4,test_fi_as1,5,blank8,0,0,1376,0
3/19/24,14:14:01,016,4,test_fi_as1,6,fi_as1,30,0,919,HOUSE
3/19/24,14:14:01,016,4,test_fi_as1,7,blank9,0,0,1494,0
3/19/24,14:14:01,016,4,test_fi_as1,8,fi_as1,30,0,1148,PRIESTS
3/19/24,14:14:01,016,4,test_fi_as1,9,blank9,0,0,1494,0
3/19/24,14:14:01,016,4,test_fi_as1,10,fi_as1,30,0,815,PEPPER
3/19/24,14:14:01,016,4,test_fi_as1,11,blank3,0,0,788,0
3/19/24,14:14:01,016,4,test_fi_as1,12,fi_as1,30,0,1454,WOBBLY
3/19/24,14:14:01,016,4,test_fi_as1,13,blank8,0,0,1376,0
3/19/24,14:14:01,016,4,test_fi_as1,14,fi_as1,38,0,1929,BARNDOOR
3/19/24,14:14:01,016,4,test_fi_as1,15,blank3,0,0,788,0
3/19/24,14:14:01,016,4,test_fi_as1,16,fi_as1,30,0,1544,PUDDING
3/19/24,14:14:01,016,4,test_fi_as1,17,blank8,0,0,1376,0
3/19/24,14:14:01,016,4,test_fi_as1,18,fi_as1,38,0,4703,CARROT
3/19/24,14:14:01,016,4,test_fi_as1,19,blank7,0,0,1259,0
3/19/24,14:14:01,016,4,test_fi_as1,20,fi_as1,30,0,679,DOCTOR
3/19/24,14:14:01,016,4,test_fi_as1,21,blank2,0,0,671,0
3/19/24,14:14:01,016,4,test_fi_as1,22,fi_as1,38,0,624,METAL
3/19/24,14:14:01,016,4,test_fi_as1,23,blank4,0,0,906,0
3/19/24,14:14:01,016,4,test_fi_as1,24,fi_as1,30,0,602,RULER
3/19/24,14:14:01,016,4,test_fi_as1,25,blank3,0,0,788,0
3/19/24,14:14:01,016,4,test_fi_as1,26,fi_as1,30,0,1258,LURCH
3/19/24,14:14:01,016,4,test_fi_as1,27,blank9,0,0,1494,0
3/19/24,14:14:01,016,4,test_fi_as1,28,fi_as1,38,0,672,GRAVEL
3/19/24,14:14:01,016,4,test_fi_as1,29,blank6,0,0,1141,0
3/19/24,14:14:01,016,4,test_fi_as1,30,fi_as1,30,0,1374,SEEDING
3/19/24,14:14:01,016,4,test_fi_as1,31,blank7,0,0,1259,0
3/19/24,14:14:01,016,4,test_fi_as1,32,fi_as1,30,0,1193,VOGUE
3/19/24,14:14:01,016,4,test_fi_as1,33,blank2,0,0,671,0
3/19/24,14:14:01,016,4,test_fi_as1,34,fi_as1,38,0,804,PLAIN
3/19/24,14:14:01,016,4,test_fi_as1,35,blank10,0,0,1612,0
3/19/24,14:14:01,016,4,test_fi_as1,36,fi_as1,30,0,585,GOGGLE
3/19/24,14:14:01,016,4,test_fi_as1,37,blank2,0,0,671,0
3/19/24,14:14:01,016,4,test_fi_as1,38,fi_as1,30,0,1262,ZIPPER
3/19/24,14:14:01,016,4,test_fi_as1,39,blank4,0,0,906,0
3/19/24,14:14:01,016,4,test_fi_as1,40,fi_as1,30,0,1133,GOLDEN
3/19/24,14:14:01,016,4,test_fi_as1,41,blank3,0,0,788,0
3/19/24,14:14:01,016,4,test_fi_as1,42,fi_as1,30,0,646,FUELS
3/19/24,14:14:01,016,4,test_fi_as1,43,blank1,0,0,553,0
3/19/24,14:14:01,016,4,test_fi_as1,44,fi_as1,30,0,758,BOSTON
3/19/24,14:14:01,016,4,test_fi_as1,45,blank2,0,0,671,0
3/19/24,14:14:01,016,4,test_fi_as1,46,fi_as1,38,0,660,FLAME
3/19/24,14:14:01,016,4,test_fi_as1,47,blank8,0,0,1376,0
3/19/24,14:14:01,016,4,test_fi_as1,48,fi_as1,30,0,769,RESCUE
3/19/24,14:14:01,016,4,test_fi_as1,49,blank9,0,0,1494,0
3/19/24,14:14:01,016,4,test_fi_as1,50,fi_as1,30,0,644,CLINGING
3/19/24,14:14:01,016,4,test_fi_as1,51,blank6,0,0,1141,0
3/19/24,14:14:01,016,4,test_fi_as1,52,fi_as1,30,0,522,BETTOR
3/19/24,14:14:01,016,4,test_fi_as1,53,blank5,0,0,1024,0
3/19/24,14:14:01,016,4,test_fi_as1,54,fi_as1,38,0,723,ORGANS
3/19/24,14:14:01,016,4,test_fi_as1,55,blank4,0,0,906,0
3/19/24,14:14:01,016,4,test_fi_as1,56,fi_as1,30,0,705,SCHOOL
3/19/24,14:14:01,016,4,test_fi_as1,57,blank5,0,0,1024,0
3/19/24,14:14:01,016,4,test_fi_as1,58,fi_as1,30,0,618,COPPER
3/19/24,14:14:01,016,4,test_fi_as1,59,blank7,0,0,1259,0
3/19/24,14:14:01,016,4,test_fi_as1,60,fi_as1,30,0,541,CUTEY
3/19/24,14:14:01,016,4,test_fi_as1,61,blank7,0,0,1259,0
3/19/24,14:14:01,016,4,test_fi_as1,62,fi_as1,30,0,572,BUTTER
3/19/24,14:14:01,016,4,test_fi_as1,63,blank6,0,0,1141,0
3/19/24,14:14:01,016,4,test_fi_as1,64,fi_as1,38,0,1222,ORANGE
3/19/24,14:14:01,016,4,test_fi_as1,65,blank1,0,0,553,0
3/19/24,14:14:01,016,4,test_fi_as1,66,fi_as1,30,0,869,COUCH
3/19/24,14:14:01,016,4,test_fi_as1,67,blank1,0,0,553,0
3/19/24,14:14:01,016,4,test_fi_as1,68,fi_as1,30,0,1091,INSECT
3/19/24,14:14:01,016,4,test_fi_as1,69,blank5,0,0,1024,0
3/19/24,14:14:01,016,4,test_fi_as1,70,fi_as1,30,0,660,GLITTER
3/19/24,14:14:01,016,4,test_fi_as1,71,blank10,0,0,1612,0
3/19/24,14:14:01,016,4,test_fi_as1,72,fi_as1,30,0,934,WINDOW
3/19/24,14:14:01,016,4,test_fi_as1,73,blank10,0,0,1612,0
3/19/24,14:14:01,016,4,test_fi_as1,74,fi_as1,30,0,637,MUTTER
3/19/24,14:14:01,016,4,test_fi_as1,75,blank5,0,0,1024,0
3/19/24,14:14:01,016,4,test_fi_as1,76,fi_as1,38,0,697,CLAPPING
3/19/24,14:14:01,016,4,test_fi_as1,77,blank1,0,0,553,0
3/19/24,14:14:01,016,4,test_fi_as1,78,fi_as1,38,0,686,DAMPER
3/19/24,14:14:01,016,4,test_fi_as1,79,blank4,0,0,906,0
3/19/24,14:14:01,016,4,test_fi_as1,80,fi_as1,30,0,701,HOTEL
3/19/24,14:14:01,016,5,test_fi_as2,1,blank_1st,0,0,1500,0
3/19/24,14:14:01,016,5,test_fi_as2,2,fi_as2,38,0,654,IMPACT
3/19/24,14:14:01,016,5,test_fi_as2,3,blank4,0,0,906,0
3/19/24,14:14:01,016,5,test_fi_as2,4,fi_as2,38,0,487,CARTOON
3/19/24,14:14:01,016,5,test_fi_as2,5,blank10,0,0,1612,0
3/19/24,14:14:01,016,5,test_fi_as2,6,fi_as2,38,0,521,BAGEL
3/19/24,14:14:01,016,5,test_fi_as2,7,blank7,0,0,1259,0
3/19/24,14:14:01,016,5,test_fi_as2,8,fi_as2,38,0,696,HAMMER
3/19/24,14:14:01,016,5,test_fi_as2,9,blank9,0,0,1494,0
3/19/24,14:14:01,016,5,test_fi_as2,10,fi_as2,30,0,1110,LESSON
3/19/24,14:14:01,016,5,test_fi_as2,11,blank5,0,0,1024,0
3/19/24,14:14:01,016,5,test_fi_as2,12,fi_as2,30,0,574,GUILTY
3/19/24,14:14:01,016,5,test_fi_as2,13,blank4,0,0,906,0
3/19/24,14:14:01,016,5,test_fi_as2,14,fi_as2,38,0,490,PAPER
3/19/24,14:14:01,016,5,test_fi_as2,15,blank5,0,0,1024,0
3/19/24,14:14:01,016,5,test_fi_as2,16,fi_as2,30,0,612,DINNER
3/19/24,14:14:01,016,5,test_fi_as2,17,blank2,0,0,671,0
3/19/24,14:14:01,016,5,test_fi_as2,18,fi_as2,30,0,977,SCORPION
3/19/24,14:14:01,016,5,test_fi_as2,19,blank10,0,0,1612,0
3/19/24,14:14:01,016,5,test_fi_as2,20,fi_as2,30,0,662,TENTH
3/19/24,14:14:01,016,5,test_fi_as2,21,blank7,0,0,1259,0
3/19/24,14:14:01,016,5,test_fi_as2,22,fi_as2,30,0,568,IMPLORE
3/19/24,14:14:01,016,5,test_fi_as2,23,blank3,0,0,788,0
3/19/24,14:14:01,016,5,test_fi_as2,24,fi_as2,30,0,713,LIGHT
3/19/24,14:14:01,016,5,test_fi_as2,25,blank7,0,0,1259,0
3/19/24,14:14:01,016,5,test_fi_as2,26,fi_as2,30,0,608,BUSHES
3/19/24,14:14:01,016,5,test_fi_as2,27,blank1,0,0,553,0
3/19/24,14:14:01,016,5,test_fi_as2,28,fi_as2,30,0,698,CHESS
3/19/24,14:14:01,016,5,test_fi_as2,29,blank10,0,0,1612,0
3/19/24,14:14:01,016,5,test_fi_as2,30,fi_as2,38,0,1026,CRACKER
3/19/24,14:14:01,016,5,test_fi_as2,31,blank8,0,0,1376,0
3/19/24,14:14:01,016,5,test_fi_as2,32,fi_as2,30,0,1327,PUPPY
3/19/24,14:14:01,016,5,test_fi_as2,33,blank8,0,0,1376,0
3/19/24,14:14:01,016,5,test_fi_as2,34,fi_as2,30,0,615,SUNNY
3/19/24,14:14:01,016,5,test_fi_as2,35,blank5,0,0,1024,0
3/19/24,14:14:01,016,5,test_fi_as2,36,fi_as2,30,0,796,SWITCH
3/19/24,14:14:01,016,5,test_fi_as2,37,blank8,0,0,1376,0
3/19/24,14:14:01,016,5,test_fi_as2,38,fi_as2,30,0,587,GRIND
3/19/24,14:14:01,016,5,test_fi_as2,39,blank6,0,0,1141,0
3/19/24,14:14:01,016,5,test_fi_as2,40,fi_as2,30,0,557,JUNGLE
3/19/24,14:14:01,016,5,test_fi_as2,41,blank6,0,0,1141,0
3/19/24,14:14:01,016,5,test_fi_as2,42,fi_as2,30,0,440,WOOLLEY
3/19/24,14:14:01,016,5,test_fi_as2,43,blank5,0,0,1024,0
3/19/24,14:14:01,016,5,test_fi_as2,44,fi_as2,30,0,644,RUSTLING
3/19/24,14:14:01,016,5,test_fi_as2,45,blank6,0,0,1141,0
3/19/24,14:14:01,016,5,test_fi_as2,46,fi_as2,30,0,531,GROSS
3/19/24,14:14:01,016,5,test_fi_as2,47,blank2,0,0,671,0
3/19/24,14:14:01,016,5,test_fi_as2,48,fi_as2,30,0,1371,WINTER
3/19/24,14:14:01,016,5,test_fi_as2,49,blank4,0,0,906,0
3/19/24,14:14:01,016,5,test_fi_as2,50,fi_as2,38,0,1029,FLASH
3/19/24,14:14:01,016,5,test_fi_as2,51,blank6,0,0,1141,0
3/19/24,14:14:01,016,5,test_fi_as2,52,fi_as2,30,0,587,PUDDING
3/19/24,14:14:01,016,5,test_fi_as2,53,blank1,0,0,553,0
3/19/24,14:14:01,016,5,test_fi_as2,54,fi_as2,30,0,1445,SMITH
3/19/24,14:14:01,016,5,test_fi_as2,55,blank8,0,0,1376,0
3/19/24,14:14:01,016,5,test_fi_as2,56,fi_as2,38,0,729,MAILED
3/19/24,14:14:01,016,5,test_fi_as2,57,blank9,0,0,1494,0
3/19/24,14:14:01,016,5,test_fi_as2,58,fi_as2,30,0,1350,COPING
3/19/24,14:14:01,016,5,test_fi_as2,59,blank1,0,0,553,0
3/19/24,14:14:01,016,5,test_fi_as2,60,fi_as2,30,0,679,ZIPPER
3/19/24,14:14:01,016,5,test_fi_as2,61,blank9,0,0,1494,0
3/19/24,14:14:01,016,5,test_fi_as2,62,fi_as2,30,0,702,GETTING
3/19/24,14:14:01,016,5,test_fi_as2,63,blank3,0,0,788,0
3/19/24,14:14:01,016,5,test_fi_as2,64,fi_as2,30,0,490,RUSTLE
3/19/24,14:14:01,016,5,test_fi_as2,65,blank9,0,0,1494,0
3/19/24,14:14:01,016,5,test_fi_as2,66,fi_as2,38,0,768,STAMPS
3/19/24,14:14:01,016,5,test_fi_as2,67,blank3,0,0,788,0
3/19/24,14:14:01,016,5,test_fi_as2,68,fi_as2,38,0,561,STRANGE
3/19/24,14:14:01,016,5,test_fi_as2,69,blank4,0,0,906,0
3/19/24,14:14:01,016,5,test_fi_as2,70,fi_as2,30,0,838,FEEDER
3/19/24,14:14:01,016,5,test_fi_as2,71,blank1,0,0,553,0
3/19/24,14:14:01,016,5,test_fi_as2,72,fi_as2,30,0,676,REPTILE
3/19/24,14:14:01,016,5,test_fi_as2,73,blank10,0,0,1612,0
3/19/24,14:14:01,016,5,test_fi_as2,74,fi_as2,30,0,790,FISHER
3/19/24,14:14:01,016,5,test_fi_as2,75,blank3,0,0,788,0
3/19/24,14:14:01,016,5,test_fi_as2,76,fi_as2,30,0,550,NOBLE
3/19/24,14:14:01,016,5,test_fi_as2,77,blank2,0,0,671,0
3/19/24,14:14:01,016,5,test_fi_as2,78,fi_as2,30,0,492,WINGS
3/19/24,14:14:01,016,5,test_fi_as2,79,blank2,0,0,671,0
3/19/24,14:14:01,016,5,test_fi_as2,80,fi_as2,38,0,606,FABRIC
3/19/24,14:14:01,016,6,SMf2_Abr,1,SMf2_Abr12,SMf_Pos14,1,5408,
3/19/24,14:14:01,016,6,SMf2_Abr,2,SMf2_Abr2,SMf_Pos5,1,1670,
3/19/24,14:14:01,016,6,SMf2_Abr,3,SMf2_Abr4,x20,0,3552,b
3/19/24,14:14:01,016,6,SMf2_Abr,4,SMf2_Abr3,s19,0,3850,b
3/19/24,14:14:01,016,6,SMf2_Abr,5,SMf2_Abr8,SMf_Pos8,0,2545,
3/19/24,14:14:01,016,6,SMf2_Abr,6,SMf2_Abr6,m15,0,1663,b
3/19/24,14:14:01,016,6,SMf2_Abr,7,SMf2_Abr1,c11,1,3193,b
3/19/24,14:14:01,016,6,SMf2_Abr,8,SMf2_Abr10,SMf_Pos11,0,2180,
3/19/24,14:14:01,016,6,SMf2_Abr,9,SMf2_Abr11,SMf_Pos4,0,2568,
3/19/24,14:14:01,016,6,SMf2_Abr,10,SMf2_Abr9,q17,0,1805,b
3/19/24,14:14:01,016,6,SMf2_Abr,11,SMf2_Abr7,x20,0,1289,b
3/19/24,14:14:01,016,6,SMf2_Abr,12,SMf2_Abr5,SMf_Pos12,0,4179,
3/19/24,18:25:46,006,1,SMf2Practice,1,achtung,0,0,1700,Attention!
3/19/24,18:25:46,006,1,SMf2Practice,2,SMf2_P_T1,0,0,2800,a
3/19/24,18:25:46,006,1,SMf2Practice,3,SMf2_P_T2,0,0,2800,i
3/19/24,18:25:46,006,1,SMf2Practice,4,SMf2_P_T3,0,0,2800,u
3/19/24,18:25:46,006,2,SMf2Practice_Abr,1,SMf2_P_Abr1,SMf_Pos9,1,1171,
3/19/24,18:25:46,006,2,SMf2Practice_Abr,2,SMf2_P_Abr2,i12,1,2541,u
3/19/24,18:25:46,006,2,SMf2Practice_Abr,3,SMf2_P_Abr3,SMf_Pos12,1,766,
3/19/24,18:25:46,006,3,SMf2,1,achtung,0,0,1700,Attention!
3/19/24,18:25:46,006,3,SMf2,2,SMf2_T1,0,0,2800,c
3/19/24,18:25:46,006,3,SMf2,3,SMf2_T2,0,0,2800,r
3/19/24,18:25:46,006,3,SMf2,4,SMf2_T3,0,0,2800,s
3/19/24,18:25:46,006,3,SMf2,5,SMf2_T4,0,0,2800,f
3/19/24,18:25:46,006,3,SMf2,6,SMf2_T5,0,0,2800,h
3/19/24,18:25:46,006,3,SMf2,7,SMf2_T6,0,0,2800,q
3/19/24,18:25:46,006,3,SMf2,8,SMf2_T7,0,0,2800,b
3/19/24,18:25:46,006,3,SMf2,9,SMf2_T8,0,0,2800,j
3/19/24,18:25:46,006,3,SMf2,10,SMf2_T9,0,0,2800,y
3/19/24,18:25:46,006,3,SMf2,11,SMf2_T10,0,0,2800,o
3/19/24,18:25:46,006,3,SMf2,12,SMf2_T11,0,0,2800,m
3/19/24,18:25:46,006,3,SMf2,13,SMf2_T12,0,0,2800,x
3/19/24,18:25:46,006,4,test_fi_as1,1,blank_1st,0,0,1500,0
3/19/24,18:25:46,006,4,test_fi_as1,2,fi_as1,30,0,4204,BRUTE
3/19/24,18:25:46,006,4,test_fi_as1,3,blank2,0,0,671,0
3/19/24,18:25:46,006,4,test_fi_as1,4,fi_as1,30,0,1737,RICHTER
3/19/24,18:25:46,006,4,test_fi_as1,5,blank10,0,0,1612,0
3/19/24,18:25:46,006,4,test_fi_as1,6,fi_as1,30,0,1662,HOUSE
3/19/24,18:25:46,006,4,test_fi_as1,7,blank1,0,0,553,0
3/19/24,18:25:46,006,4,test_fi_as1,8,fi_as1,30,0,739,PRIESTS
3/19/24,18:25:46,006,4,test_fi_as1,9,blank7,0,0,1259,0
3/19/24,18:25:46,006,4,test_fi_as1,10,fi_as1,30,0,497,PEPPER
3/19/24,18:25:46,006,4,test_fi_as1,11,blank8,0,0,1376,0
3/19/24,18:25:46,006,4,test_fi_as1,12,fi_as1,30,0,460,WOBBLY
3/19/24,18:25:46,006,4,test_fi_as1,13,blank6,0,0,1141,0
3/19/24,18:25:46,006,4,test_fi_as1,14,fi_as1,38,0,947,BARNDOOR
3/19/24,18:25:46,006,4,test_fi_as1,15,blank8,0,0,1376,0
3/19/24,18:25:46,006,4,test_fi_as1,16,fi_as1,30,0,620,PUDDING
3/19/24,18:25:46,006,4,test_fi_as1,17,blank2,0,0,671,0
3/19/24,18:25:46,006,4,test_fi_as1,18,fi_as1,30,0,896,CARROT
3/19/24,18:25:46,006,4,test_fi_as1,19,blank5,0,0,1024,0
3/19/24,18:25:46,006,4,test_fi_as1,20,fi_as1,30,0,634,DOCTOR
3/19/24,18:25:46,006,4,test_fi_as1,21,blank7,0,0,1259,0
3/19/24,18:25:46,006,4,test_fi_as1,22,fi_as1,38,0,715,METAL
3/19/24,18:25:46,006,4,test_fi_as1,23,blank3,0,0,788,0
3/19/24,18:25:46,006,4,test_fi_as1,24,fi_as1,30,0,645,RULER
3/19/24,18:25:46,006,4,test_fi_as1,25,blank3,0,0,788,0
3/19/24,18:25:46,006,4,test_fi_as1,26,fi_as1,30,0,611,LURCH
3/19/24,18:25:46,006,4,test_fi_as1,27,blank2,0,0,671,0
3/19/24,18:25:46,006,4,test_fi_as1,28,fi_as1,30,0,496,GRAVEL
3/19/24,18:25:46,006,4,test_fi_as1,29,blank10,0,0,1612,0
3/19/24,18:25:46,006,4,test_fi_as1,30,fi_as1,30,0,674,SEEDING
3/19/24,18:25:46,006,4,test_fi_as1,31,blank8,0,0,1376,0
3/19/24,18:25:46,006,4,test_fi_as1,32,fi_as1,30,0,494,VOGUE
3/19/24,18:25:46,006,4,test_fi_as1,33,blank3,0,0,788,0
3/19/24,18:25:46,006,4,test_fi_as1,34,fi_as1,38,0,698,PLAIN
3/19/24,18:25:46,006,4,test_fi_as1,35,blank6,0,0,1141,0
3/19/24,18:25:46,006,4,test_fi_as1,36,fi_as1,30,0,1671,GOGGLE
3/19/24,18:25:46,006,4,test_fi_as1,37,blank6,0,0,1141,0
3/19/24,18:25:46,006,4,test_fi_as1,38,fi_as1,30,0,874,ZIPPER
3/19/24,18:25:46,006,4,test_fi_as1,39,blank10,0,0,1612,0
3/19/24,18:25:46,006,4,test_fi_as1,40,fi_as1,30,0,2028,GOLDEN
3/19/24,18:25:46,006,4,test_fi_as1,41,blank9,0,0,1494,0
3/19/24,18:25:46,006,4,test_fi_as1,42,fi_as1,30,0,1457,FUELS
3/19/24,18:25:46,006,4,test_fi_as1,43,blank10,0,0,1612,0
3/19/24,18:25:46,006,4,test_fi_as1,44,fi_as1,30,0,747,BOSTON
3/19/24,18:25:46,006,4,test_fi_as1,45,blank1,0,0,553,0
3/19/24,18:25:46,006,4,test_fi_as1,46,fi_as1,38,0,846,FLAME
3/19/24,18:25:46,006,4,test_fi_as1,47,blank3,0,0,788,0
3/19/24,18:25:46,006,4,test_fi_as1,48,fi_as1,30,0,1028,RESCUE
3/19/24,18:25:46,006,4,test_fi_as1,49,blank4,0,0,906,0
3/19/24,18:25:46,006,4,test_fi_as1,50,fi_as1,30,0,789,CLINGING
3/19/24,18:25:46,006,4,test_fi_as1,51,blank5,0,0,1024,0
3/19/24,18:25:46,006,4,test_fi_as1,52,fi_as1,30,0,835,BETTOR
3/19/24,18:25:46,006,4,test_fi_as1,53,blank5,0,0,1024,0
3/19/24,18:25:46,006,4,test_fi_as1,54,fi_as1,38,0,926,ORGANS
3/19/24,18:25:46,006,4,test_fi_as1,55,blank9,0,0,1494,0
3/19/24,18:25:46,006,4,test_fi_as1,56,fi_as1,30,0,595,SCHOOL
3/19/24,18:25:46,006,4,test_fi_as1,57,blank8,0,0,1376,0
3/19/24,18:25:46,006,4,test_fi_as1,58,fi_as1,30,0,635,COPPER
3/19/24,18:25:46,006,4,test_fi_as1,59,blank9,0,0,1494,0
3/19/24,18:25:46,006,4,test_fi_as1,60,fi_as1,30,0,570,CUTEY
3/19/24,18:25:46,006,4,test_fi_as1,61,blank9,0,0,1494,0
3/19/24,18:25:46,006,4,test_fi_as1,62,fi_as1,30,0,638,BUTTER
3/19/24,18:25:46,006,4,test_fi_as1,63,blank7,0,0,1259,0
3/19/24,18:25:46,006,4,test_fi_as1,64,fi_as1,38,0,752,ORANGE
3/19/24,18:25:46,006,4,test_fi_as1,65,blank1,0,0,553,0
3/19/24,18:25:46,006,4,test_fi_as1,66,fi_as1,30,0,571,COUCH
3/19/24,18:25:46,006,4,test_fi_as1,67,blank4,0,0,906,0
3/19/24,18:25:46,006,4,test_fi_as1,68,fi_as1,30,0,1215,INSECT
3/19/24,18:25:46,006,4,test_fi_as1,69,blank4,0,0,906,0
3/19/24,18:25:46,006,4,test_fi_as1,70,fi_as1,30,0,2496,GLITTER
3/19/24,18:25:46,006,4,test_fi_as1,71,blank6,0,0,1141,0
3/19/24,18:25:46,006,4,test_fi_as1,72,fi_as1,30,0,569,WINDOW
3/19/24,18:25:46,006,4,test_fi_as1,73,blank7,0,0,1259,0
3/19/24,18:25:46,006,4,test_fi_as1,74,fi_as1,30,0,455,MUTTER
3/19/24,18:25:46,006,4,test_fi_as1,75,blank5,0,0,1024,0
3/19/24,18:25:46,006,4,test_fi_as1,76,fi_as1,38,0,698,CLAPPING
3/19/24,18:25:46,006,4,test_fi_as1,77,blank4,0,0,906,0
3/19/24,18:25:46,006,4,test_fi_as1,78,fi_as1,38,0,505,DAMPER
3/19/24,18:25:46,006,4,test_fi_as1,79,blank1,0,0,553,0
3/19/24,18:25:46,006,4,test_fi_as1,80,fi_as1,30,0,565,HOTEL
3/19/24,18:25:46,006,5,test_fi_as2,1,blank_1st,0,0,1500,0
3/19/24,18:25:46,006,5,test_fi_as2,2,fi_as2,38,0,1132,IMPACT
3/19/24,18:25:46,006,5,test_fi_as2,3,blank3,0,0,788,0
3/19/24,18:25:46,006,5,test_fi_as2,4,fi_as2,38,0,997,CARTOON
3/19/24,18:25:46,006,5,test_fi_as2,5,blank8,0,0,1376,0
3/19/24,18:25:46,006,5,test_fi_as2,6,fi_as2,38,0,540,BAGEL
3/19/24,18:25:46,006,5,test_fi_as2,7,blank6,0,0,1141,0
3/19/24,18:25:46,006,5,test_fi_as2,8,fi_as2,38,0,455,HAMMER
3/19/24,18:25:46,006,5,test_fi_as2,9,blank9,0,0,1494,0
3/19/24,18:25:46,006,5,test_fi_as2,10,fi_as2,30,0,792,LESSON
3/19/24,18:25:46,006,5,test_fi_as2,11,blank3,0,0,788,0
3/19/24,18:25:46,006,5,test_fi_as2,12,fi_as2,30,0,639,GUILTY
3/19/24,18:25:46,006,5,test_fi_as2,13,blank4,0,0,906,0
3/19/24,18:25:46,006,5,test_fi_as2,14,fi_as2,38,0,633,PAPER
3/19/24,18:25:46,006,5,test_fi_as2,15,blank3,0,0,788,0
3/19/24,18:25:46,006,5,test_fi_as2,16,fi_as2,30,0,599,DINNER
3/19/24,18:25:46,006,5,test_fi_as2,17,blank3,0,0,788,0
3/19/24,18:25:46,006,5,test_fi_as2,18,fi_as2,30,0,654,SCORPION
3/19/24,18:25:46,006,5,test_fi_as2,19,blank10,0,0,1612,0
3/19/24,18:25:46,006,5,test_fi_as2,20,fi_as2,30,0,760,TENTH
3/19/24,18:25:46,006,5,test_fi_as2,21,blank7,0,0,1259,0
3/19/24,18:25:46,006,5,test_fi_as2,22,fi_as2,30,0,797,IMPLORE
3/19/24,18:25:46,006,5,test_fi_as2,23,blank8,0,0,1376,0
3/19/24,18:25:46,006,5,test_fi_as2,24,fi_as2,30,0,2596,LIGHT
3/19/24,18:25:46,006,5,test_fi_as2,25,blank10,0,0,1612,0
3/19/24,18:25:46,006,5,test_fi_as2,26,fi_as2,30,0,957,BUSHES
3/19/24,18:25:46,006,5,test_fi_as2,27,blank10,0,0,1612,0
3/19/24,18:25:46,006,5,test_fi_as2,28,fi_as2,30,0,884,CHESS
3/19/24,18:25:46,006,5,test_fi_as2,29,blank7,0,0,1259,0
3/19/24,18:25:46,006,5,test_fi_as2,30,fi_as2,38,0,851,CRACKER
3/19/24,18:25:46,006,5,test_fi_as2,31,blank2,0,0,671,0
3/19/24,18:25:46,006,5,test_fi_as2,32,fi_as2,30,0,445,PUPPY
3/19/24,18:25:46,006,5,test_fi_as2,33,blank9,0,0,1494,0
3/19/24,18:25:46,006,5,test_fi_as2,34,fi_as2,30,0,918,SUNNY
3/19/24,18:25:46,006,5,test_fi_as2,35,blank2,0,0,671,0
3/19/24,18:25:46,006,5,test_fi_as2,36,fi_as2,30,0,748,SWITCH
3/19/24,18:25:46,006,5,test_fi_as2,37,blank9,0,0,1494,0
3/19/24,18:25:46,006,5,test_fi_as2,38,fi_as2,30,0,528,GRIND
3/19/24,18:25:46,006,5,test_fi_as2,39,blank5,0,0,1024,0
3/19/24,18:25:46,006,5,test_fi_as2,40,fi_as2,30,0,721,JUNGLE
3/19/24,18:25:46,006,5,test_fi_as2,41,blank10,0,0,1612,0
3/19/24,18:25:46,006,5,test_fi_as2,42,fi_as2,30,0,641,WOOLLEY
3/19/24,18:25:46,006,5,test_fi_as2,43,blank4,0,0,906,0
3/19/24,18:25:46,006,5,test_fi_as2,44,fi_as2,30,0,586,RUSTLING
3/19/24,18:25:46,006,5,test_fi_as2,45,blank1,0,0,553,0
3/19/24,18:25:46,006,5,test_fi_as2,46,fi_as2,30,0,596,GROSS
3/19/24,18:25:46,006,5,test_fi_as2,47,blank6,0,0,1141,0
3/19/24,18:25:46,006,5,test_fi_as2,48,fi_as2,30,0,789,WINTER
3/19/24,18:25:46,006,5,test_fi_as2,49,blank7,0,0,1259,0
3/19/24,18:25:46,006,5,test_fi_as2,50,fi_as2,38,0,610,FLASH
3/19/24,18:25:46,006,5,test_fi_as2,51,blank9,0,0,1494,0
3/19/24,18:25:46,006,5,test_fi_as2,52,fi_as2,30,0,1451,PUDDING
3/19/24,18:25:46,006,5,test_fi_as2,53,blank1,0,0,553,0
3/19/24,18:25:46,006,5,test_fi_as2,54,fi_as2,30,0,1536,SMITH
3/19/24,18:25:46,006,5,test_fi_as2,55,blank6,0,0,1141,0
3/19/24,18:25:46,006,5,test_fi_as2,56,fi_as2,38,0,1057,MAILED
3/19/24,18:25:46,006,5,test_fi_as2,57,blank8,0,0,1376,0
3/19/24,18:25:46,006,5,test_fi_as2,58,fi_as2,30,0,501,COPING
3/19/24,18:25:46,006,5,test_fi_as2,59,blank6,0,0,1141,0
3/19/24,18:25:46,006,5,test_fi_as2,60,fi_as2,30,0,458,ZIPPER
3/19/24,18:25:46,006,5,test_fi_as2,61,blank5,0,0,1024,0
3/19/24,18:25:46,006,5,test_fi_as2,62,fi_as2,30,0,542,GETTING
3/19/24,18:25:46,006,5,test_fi_as2,63,blank2,0,0,671,0
3/19/24,18:25:46,006,5,test_fi_as2,64,fi_as2,30,0,1133,RUSTLE
3/19/24,18:25:46,006,5,test_fi_as2,65,blank4,0,0,906,0
3/19/24,18:25:46,006,5,test_fi_as2,66,fi_as2,38,0,553,STAMPS
3/19/24,18:25:46,006,5,test_fi_as2,67,blank2,0,0,671,0
3/19/24,18:25:46,006,5,test_fi_as2,68,fi_as2,38,0,496,STRANGE
3/19/24,18:25:46,006,5,test_fi_as2,69,blank7,0,0,1259,0
3/19/24,18:25:46,006,5,test_fi_as2,70,fi_as2,30,0,1024,FEEDER
3/19/24,18:25:46,006,5,test_fi_as2,71,blank4,0,0,906,0
3/19/24,18:25:46,006,5,test_fi_as2,72,fi_as2,30,0,1393,REPTILE
3/19/24,18:25:46,006,5,test_fi_as2,73,blank8,0,0,1376,0
3/19/24,18:25:46,006,5,test_fi_as2,74,fi_as2,30,0,423,FISHER
3/19/24,18:25:46,006,5,test_fi_as2,75,blank5,0,0,1024,0
3/19/24,18:25:46,006,5,test_fi_as2,76,fi_as2,30,0,579,NOBLE
3/19/24,18:25:46,006,5,test_fi_as2,77,blank5,0,0,1024,0
3/19/24,18:25:46,006,5,test_fi_as2,78,fi_as2,30,0,650,WINGS
3/19/24,18:25:46,006,5,test_fi_as2,79,blank1,0,0,553,0
3/19/24,18:25:46,006,5,test_fi_as2,80,fi_as2,38,0,458,FABRIC
3/19/24,18:25:46,006,6,SMf2_Abr,1,SMf2_Abr12,SMf_Pos10,0,3426,
3/19/24,18:25:46,006,6,SMf2_Abr,2,SMf2_Abr2,SMf_Pos12,0,1651,
3/19/24,18:25:46,006,6,SMf2_Abr,3,SMf2_Abr4,o18,0,7365,b
3/19/24,18:25:46,006,6,SMf2_Abr,4,SMf2_Abr3,m15,0,7848,b
3/19/24,18:25:46,006,6,SMf2_Abr,5,SMf2_Abr8,SMf_Pos11,0,3358,
3/19/24,18:25:46,006,6,SMf2_Abr,6,SMf2_Abr6,j14,0,2177,b
3/19/24,18:25:46,006,6,SMf2_Abr,7,SMf2_Abr1,r16,0,3878,b
3/19/24,18:25:46,006,6,SMf2_Abr,8,SMf2_Abr10,SMf_Pos16,0,1675,
3/19/24,18:25:46,006,6,SMf2_Abr,9,SMf2_Abr11,SMf_Pos14,0,2645,
3/19/24,18:25:46,006,6,SMf2_Abr,10,SMf2_Abr9,r16,0,3902,b
3/19/24,18:25:46,006,6,SMf2_Abr,11,SMf2_Abr7,s19,0,3131,b
3/19/24,18:25:46,006,6,SMf2_Abr,12,SMf2_Abr5,SMf_Pos2,0,3040,
3/20/24,14:42:09,021,1,SMf2Practice,1,achtung,0,0,1700,Attention!
3/20/24,14:42:09,021,1,SMf2Practice,2,SMf2_P_T1,0,0,2800,a
3/20/24,14:42:09,021,1,SMf2Practice,3,SMf2_P_T2,0,0,2800,i
3/20/24,14:42:09,021,1,SMf2Practice,4,SMf2_P_T3,0,0,2800,u
3/20/24,14:42:09,021,2,SMf2Practice_Abr,1,SMf2_P_Abr1,SMf_Pos9,1,1341,
3/20/24,14:42:09,021,2,SMf2Practice_Abr,2,SMf2_P_Abr2,i12,1,4512,u
3/20/24,14:42:09,021,2,SMf2Practice_Abr,3,SMf2_P_Abr3,SMf_Pos12,1,2654,
3/20/24,14:42:09,021,3,SMf2,1,achtung,0,0,1700,Attention!
3/20/24,14:42:09,021,3,SMf2,2,SMf2_T1,0,0,2800,c
3/20/24,14:42:09,021,3,SMf2,3,SMf2_T2,0,0,2800,r
3/20/24,14:42:09,021,3,SMf2,4,SMf2_T3,0,0,2800,s
3/20/24,14:42:09,021,3,SMf2,5,SMf2_T4,0,0,2800,f
3/20/24,14:42:09,021,3,SMf2,6,SMf2_T5,0,0,2800,h
3/20/24,14:42:09,021,3,SMf2,7,SMf2_T6,0,0,2800,q
3/20/24,14:42:09,021,3,SMf2,8,SMf2_T7,0,0,2800,b
3/20/24,14:42:09,021,3,SMf2,9,SMf2_T8,0,0,2800,j
3/20/24,14:42:09,021,3,SMf2,10,SMf2_T9,0,0,2800,y
3/20/24,14:42:09,021,3,SMf2,11,SMf2_T10,0,0,2800,o
3/20/24,14:42:09,021,3,SMf2,12,SMf2_T11,0,0,2800,m
3/20/24,14:42:09,021,3,SMf2,13,SMf2_T12,0,0,2800,x
3/20/24,14:42:09,021,4,test_fi_as1,1,blank_1st,0,0,1500,0
3/20/24,14:42:09,021,4,test_fi_as1,2,fi_as1,30,0,7755,BRUTE
3/20/24,14:42:09,021,4,test_fi_as1,3,blank8,0,0,1376,0
3/20/24,14:42:09,021,4,test_fi_as1,4,fi_as1,30,0,3205,RICHTER
3/20/24,14:42:09,021,4,test_fi_as1,5,blank4,0,0,906,0
3/20/24,14:42:09,021,4,test_fi_as1,6,fi_as1,30,0,930,HOUSE
3/20/24,14:42:09,021,4,test_fi_as1,7,blank1,0,0,553,0
3/20/24,14:42:09,021,4,test_fi_as1,8,fi_as1,30,0,1574,PRIESTS
3/20/24,14:42:09,021,4,test_fi_as1,9,blank10,0,0,1612,0
3/20/24,14:42:09,021,4,test_fi_as1,10,fi_as1,30,0,882,PEPPER
3/20/24,14:42:09,021,4,test_fi_as1,11,blank4,0,0,906,0
3/20/24,14:42:09,021,4,test_fi_as1,12,fi_as1,30,0,1001,WOBBLY
3/20/24,14:42:09,021,4,test_fi_as1,13,blank10,0,0,1612,0
3/20/24,14:42:09,021,4,test_fi_as1,14,fi_as1,38,0,1109,BARNDOOR
3/20/24,14:42:09,021,4,test_fi_as1,15,blank5,0,0,1024,0
3/20/24,14:42:09,021,4,test_fi_as1,16,fi_as1,30,0,1021,PUDDING
3/20/24,14:42:09,021,4,test_fi_as1,17,blank8,0,0,1376,0
3/20/24,14:42:09,021,4,test_fi_as1,18,fi_as1,38,0,1466,CARROT
3/20/24,14:42:09,021,4,test_fi_as1,19,blank7,0,0,1259,0
3/20/24,14:42:09,021,4,test_fi_as1,20,fi_as1,30,0,761,DOCTOR
3/20/24,14:42:09,021,4,test_fi_as1,21,blank9,0,0,1494,0
3/20/24,14:42:09,021,4,test_fi_as1,22,fi_as1,38,0,1501,METAL
3/20/24,14:42:09,021,4,test_fi_as1,23,blank7,0,0,1259,0
3/20/24,14:42:09,021,4,test_fi_as1,24,fi_as1,30,0,2027,RULER
3/20/24,14:42:09,021,4,test_fi_as1,25,blank7,0,0,1259,0
3/20/24,14:42:09,021,4,test_fi_as1,26,fi_as1,30,0,891,LURCH
3/20/24,14:42:09,021,4,test_fi_as1,27,blank3,0,0,788,0
3/20/24,14:42:09,021,4,test_fi_as1,28,fi_as1,38,0,566,GRAVEL
3/20/24,14:42:09,021,4,test_fi_as1,29,blank6,0,0,1141,0
3/20/24,14:42:09,021,4,test_fi_as1,30,fi_as1,30,0,560,SEEDING
3/20/24,14:42:09,021,4,test_fi_as1,31,blank3,0,0,788,0
3/20/24,14:42:09,021,4,test_fi_as1,32,fi_as1,30,0,849,VOGUE
3/20/24,14:42:09,021,4,test_fi_as1,33,blank6,0,0,1141,0
3/20/24,14:42:09,021,4,test_fi_as1,34,fi_as1,38,0,527,PLAIN
3/20/24,14:42:09,021,4,test_fi_as1,35,blank3,0,0,788,0
3/20/24,14:42:09,021,4,test_fi_as1,36,fi_as1,30,0,1266,GOGGLE
3/20/24,14:42:09,021,4,test_fi_as1,37,blank8,0,0,1376,0
3/20/24,14:42:09,021,4,test_fi_as1,38,fi_as1,30,0,757,ZIPPER
3/20/24,14:42:09,021,4,test_fi_as1,39,blank3,0,0,788,0
3/20/24,14:42:09,021,4,test_fi_as1,40,fi_as1,30,0,526,GOLDEN
3/20/24,14:42:09,021,4,test_fi_as1,41,blank5,0,0,1024,0
3/20/24,14:42:09,021,4,test_fi_as1,42,fi_as1,30,0,583,FUELS
3/20/24,14:42:09,021,4,test_fi_as1,43,blank1,0,0,553,0
3/20/24,14:42:09,021,4,test_fi_as1,44,fi_as1,30,0,553,BOSTON
3/20/24,14:42:09,021,4,test_fi_as1,45,blank10,0,0,1612,0
3/20/24,14:42:09,021,4,test_fi_as1,46,fi_as1,38,0,680,FLAME
3/20/24,14:42:09,021,4,test_fi_as1,47,blank6,0,0,1141,0
3/20/24,14:42:09,021,4,test_fi_as1,48,fi_as1,30,0,934,RESCUE
3/20/24,14:42:09,021,4,test_fi_as1,49,blank10,0,0,1612,0
3/20/24,14:42:09,021,4,test_fi_as1,50,fi_as1,30,0,1788,CLINGING
3/20/24,14:42:09,021,4,test_fi_as1,51,blank5,0,0,1024,0
3/20/24,14:42:09,021,4,test_fi_as1,52,fi_as1,30,0,968,BETTOR
3/20/24,14:42:09,021,4,test_fi_as1,53,blank7,0,0,1259,0
3/20/24,14:42:09,021,4,test_fi_as1,54,fi_as1,38,0,740,ORGANS
3/20/24,14:42:09,021,4,test_fi_as1,55,blank1,0,0,553,0
3/20/24,14:42:09,021,4,test_fi_as1,56,fi_as1,30,0,704,SCHOOL
3/20/24,14:42:09,021,4,test_fi_as1,57,blank8,0,0,1376,0
3/20/24,14:42:09,021,4,test_fi_as1,58,fi_as1,30,0,794,COPPER
3/20/24,14:42:09,021,4,test_fi_as1,59,blank5,0,0,1024,0
3/20/24,14:42:09,021,4,test_fi_as1,60,fi_as1,30,0,600,CUTEY
3/20/24,14:42:09,021,4,test_fi_as1,61,blank9,0,0,1494,0
3/20/24,14:42:09,021,4,test_fi_as1,62,fi_as1,30,0,626,BUTTER
3/20/24,14:42:09,021,4,test_fi_as1,63,blank9,0,0,1494,0
3/20/24,14:42:09,021,4,test_fi_as1,64,fi_as1,38,0,739,ORANGE
3/20/24,14:42:09,021,4,test_fi_as1,65,blank2,0,0,671,0
3/20/24,14:42:09,021,4,test_fi_as1,66,fi_as1,30,0,490,COUCH
3/20/24,14:42:09,021,4,test_fi_as1,67,blank2,0,0,671,0
3/20/24,14:42:09,021,4,test_fi_as1,68,fi_as1,30,0,699,INSECT
3/20/24,14:42:09,021,4,test_fi_as1,69,blank4,0,0,906,0
3/20/24,14:42:09,021,4,test_fi_as1,70,fi_as1,30,0,578,GLITTER
3/20/24,14:42:09,021,4,test_fi_as1,71,blank2,0,0,671,0
3/20/24,14:42:09,021,4,test_fi_as1,72,fi_as1,30,0,470,WINDOW
3/20/24,14:42:09,021,4,test_fi_as1,73,blank2,0,0,671,0
3/20/24,14:42:09,021,4,test_fi_as1,74,fi_as1,30,0,600,MUTTER
3/20/24,14:42:09,021,4,test_fi_as1,75,blank6,0,0,1141,0
3/20/24,14:42:09,021,4,test_fi_as1,76,fi_as1,38,0,625,CLAPPING
3/20/24,14:42:09,021,4,test_fi_as1,77,blank9,0,0,1494,0
3/20/24,14:42:09,021,4,test_fi_as1,78,fi_as1,38,0,610,DAMPER
3/20/24,14:42:09,021,4,test_fi_as1,79,blank4,0,0,906,0
3/20/24,14:42:09,021,4,test_fi_as1,80,fi_as1,30,0,685,HOTEL
3/20/24,14:42:09,021,5,test_fi_as2,1,blank_1st,0,0,1500,0
3/20/24,14:42:09,021,5,test_fi_as2,2,fi_as2,38,0,1014,IMPACT
3/20/24,14:42:09,021,5,test_fi_as2,3,blank8,0,0,1376,0
3/20/24,14:42:09,021,5,test_fi_as2,4,fi_as2,38,0,668,CARTOON
3/20/24,14:42:09,021,5,test_fi_as2,5,blank1,0,0,553,0
3/20/24,14:42:09,021,5,test_fi_as2,6,fi_as2,38,0,531,BAGEL
3/20/24,14:42:09,021,5,test_fi_as2,7,blank10,0,0,1612,0
3/20/24,14:42:09,021,5,test_fi_as2,8,fi_as2,30,0,1619,HAMMER
3/20/24,14:42:09,021,5,test_fi_as2,9,blank2,0,0,671,0
3/20/24,14:42:09,021,5,test_fi_as2,10,fi_as2,30,0,780,LESSON
3/20/24,14:42:09,021,5,test_fi_as2,11,blank4,0,0,906,0
3/20/24,14:42:09,021,5,test_fi_as2,12,fi_as2,30,0,1135,GUILTY
3/20/24,14:42:09,021,5,test_fi_as2,13,blank2,0,0,671,0
3/20/24,14:42:09,021,5,test_fi_as2,14,fi_as2,38,0,476,PAPER
3/20/24,14:42:09,021,5,test_fi_as2,15,blank2,0,0,671,0
3/20/24,14:42:09,021,5,test_fi_as2,16,fi_as2,30,0,1286,DINNER
3/20/24,14:42:09,021,5,test_fi_as2,17,blank2,0,0,671,0
3/20/24,14:42:09,021,5,test_fi_as2,18,fi_as2,30,0,2862,SCORPION
3/20/24,14:42:09,021,5,test_fi_as2,19,blank7,0,0,1259,0
3/20/24,14:42:09,021,5,test_fi_as2,20,fi_as2,30,0,707,TENTH
3/20/24,14:42:09,021,5,test_fi_as2,21,blank5,0,0,1024,0
3/20/24,14:42:09,021,5,test_fi_as2,22,fi_as2,30,0,844,IMPLORE
3/20/24,14:42:09,021,5,test_fi_as2,23,blank6,0,0,1141,0
3/20/24,14:42:09,021,5,test_fi_as2,24,fi_as2,30,0,595,LIGHT
3/20/24,14:42:09,021,5,test_fi_as2,25,blank1,0,0,553,0
3/20/24,14:42:09,021,5,test_fi_as2,26,fi_as2,30,0,789,BUSHES
3/20/24,14:42:09,021,5,test_fi_as2,27,blank10,0,0,1612,0
3/20/24,14:42:09,021,5,test_fi_as2,28,fi_as2,30,0,651,CHESS
3/20/24,14:42:09,021,5,test_fi_as2,29,blank3,0,0,788,0
3/20/24,14:42:09,021,5,test_fi_as2,30,fi_as2,38,0,575,CRACKER
3/20/24,14:42:09,021,5,test_fi_as2,31,blank7,0,0,1259,0
3/20/24,14:42:09,021,5,test_fi_as2,32,fi_as2,30,0,772,PUPPY
3/20/24,14:42:09,021,5,test_fi_as2,33,blank5,0,0,1024,0
3/20/24,14:42:09,021,5,test_fi_as2,34,fi_as2,30,0,2171,SUNNY
3/20/24,14:42:09,021,5,test_fi_as2,35,blank3,0,0,788,0
3/20/24,14:42:09,021,5,test_fi_as2,36,fi_as2,30,0,720,SWITCH
3/20/24,14:42:09,021,5,test_fi_as2,37,blank3,0,0,788,0
3/20/24,14:42:09,021,5,test_fi_as2,38,fi_as2,30,0,1467,GRIND
3/20/24,14:42:09,021,5,test_fi_as2,39,blank9,0,0,1494,0
3/20/24,14:42:09,021,5,test_fi_as2,40,fi_as2,30,0,920,JUNGLE
3/20/24,14:42:09,021,5,test_fi_as2,41,blank6,0,0,1141,0
3/20/24,14:42:09,021,5,test_fi_as2,42,fi_as2,30,0,587,WOOLLEY
3/20/24,14:42:09,021,5,test_fi_as2,43,blank4,0,0,906,0
3/20/24,14:42:09,021,5,test_fi_as2,44,fi_as2,30,0,1031,RUSTLING
3/20/24,14:42:09,021,5,test_fi_as2,45,blank6,0,0,1141,0
3/20/24,14:42:09,021,5,test_fi_as2,46,fi_as2,30,0,1022,GROSS
3/20/24,14:42:09,021,5,test_fi_as2,47,blank4,0,0,906,0
3/20/24,14:42:09,021,5,test_fi_as2,48,fi_as2,30,0,807,WINTER
3/20/24,14:42:09,021,5,test_fi_as2,49,blank8,0,0,1376,0
3/20/24,14:42:09,021,5,test_fi_as2,50,fi_as2,38,0,852,FLASH
3/20/24,14:42:09,021,5,test_fi_as2,51,blank9,0,0,1494,0
3/20/24,14:42:09,021,5,test_fi_as2,52,fi_as2,30,0,3195,PUDDING
3/20/24,14:42:09,021,5,test_fi_as2,53,blank9,0,0,1494,0
3/20/24,14:42:09,021,5,test_fi_as2,54,fi_as2,30,0,745,SMITH
3/20/24,14:42:09,021,5,test_fi_as2,55,blank4,0,0,906,0
3/20/24,14:42:09,021,5,test_fi_as2,56,fi_as2,38,0,686,MAILED
3/20/24,14:42:09,021,5,test_fi_as2,57,blank9,0,0,1494,0
3/20/24,14:42:09,021,5,test_fi_as2,58,fi_as2,30,0,1364,COPING
3/20/24,14:42:09,021,5,test_fi_as2,59,blank5,0,0,1024,0
3/20/24,14:42:09,021,5,test_fi_as2,60,fi_as2,30,0,1098,ZIPPER
3/20/24,14:42:09,021,5,test_fi_as2,61,blank10,0,0,1612,0
3/20/24,14:42:09,021,5,test_fi_as2,62,fi_as2,30,0,651,GETTING
3/20/24,14:42:09,021,5,test_fi_as2,63,blank6,0,0,1141,0
3/20/24,14:42:09,021,5,test_fi_as2,64,fi_as2,30,0,1192,RUSTLE
3/20/24,14:42:09,021,5,test_fi_as2,65,blank8,0,0,1376,0
3/20/24,14:42:09,021,5,test_fi_as2,66,fi_as2,38,0,710,STAMPS
3/20/24,14:42:09,021,5,test_fi_as2,67,blank10,0,0,1612,0
3/20/24,14:42:09,021,5,test_fi_as2,68,fi_as2,38,0,623,STRANGE
3/20/24,14:42:09,021,5,test_fi_as2,69,blank1,0,0,553,0
3/20/24,14:42:09,021,5,test_fi_as2,70,fi_as2,30,0,728,FEEDER
3/20/24,14:42:09,021,5,test_fi_as2,71,blank3,0,0,788,0
3/20/24,14:42:09,021,5,test_fi_as2,72,fi_as2,30,0,1306,REPTILE
3/20/24,14:42:09,021,5,test_fi_as2,73,blank7,0,0,1259,0
3/20/24,14:42:09,021,5,test_fi_as2,74,fi_as2,30,0,1225,FISHER
3/20/24,14:42:09,021,5,test_fi_as2,75,blank1,0,0,553,0
3/20/24,14:42:09,021,5,test_fi_as2,76,fi_as2,30,0,824,NOBLE
3/20/24,14:42:09,021,5,test_fi_as2,77,blank7,0,0,1259,0
3/20/24,14:42:09,021,5,test_fi_as2,78,fi_as2,30,0,675,WINGS
3/20/24,14:42:09,021,5,test_fi_as2,79,blank5,0,0,1024,0
3/20/24,14:42:09,021,5,test_fi_as2,80,fi_as2,38,0,621,FABRIC
3/20/24,14:42:09,021,6,SMf2_Abr,1,SMf2_Abr12,SMf_Pos8,0,6379,
3/20/24,14:42:09,021,6,SMf2_Abr,2,SMf2_Abr2,SMf_Pos7,0,3247,
3/20/24,14:42:09,021,6,SMf2_Abr,3,SMf2_Abr4,s19,0,3734,b
3/20/24,14:42:09,021,6,SMf2_Abr,4,SMf2_Abr3,s19,0,11138,b
3/20/24,14:42:09,021,6,SMf2_Abr,5,SMf2_Abr8,SMf_Pos10,1,7613,
3/20/24,14:42:09,021,6,SMf2_Abr,6,SMf2_Abr6,q17,0,3093,b
3/20/24,14:42:09,021,6,SMf2_Abr,7,SMf2_Abr1,m15,0,6580,b
3/20/24,14:42:09,021,6,SMf2_Abr,8,SMf2_Abr10,SMf_Pos5,0,1719,
3/20/24,14:42:09,021,6,SMf2_Abr,9,SMf2_Abr11,SMf_Pos2,0,1927,
3/20/24,14:42:09,021,6,SMf2_Abr,10,SMf2_Abr9,s19,0,3007,b
3/20/24,14:42:09,021,6,SMf2_Abr,11,SMf2_Abr7,f12,0,3352,b
3/20/24,14:42:09,021,6,SMf2_Abr,12,SMf2_Abr5,SMf_Pos10,0,1436,
3/20/24,16:21:49,007,1,SMf2Practice,1,achtung,0,0,1700,Attention!
3/20/24,16:21:49,007,1,SMf2Practice,2,SMf2_P_T1,0,0,2800,a
3/20/24,16:21:49,007,1,SMf2Practice,3,SMf2_P_T2,0,0,2800,i
3/20/24,16:21:49,007,1,SMf2Practice,4,SMf2_P_T3,0,0,2800,u
3/20/24,16:21:49,007,2,SMf2Practice_Abr,1,SMf2_P_Abr1,SMf_Pos9,1,4480,
3/20/24,16:21:49,007,2,SMf2Practice_Abr,2,SMf2_P_Abr2,i12,1,3040,u
3/20/24,16:21:49,007,2,SMf2Practice_Abr,3,SMf2_P_Abr3,SMf_Pos12,1,2186,
3/20/24,16:21:49,007,3,SMf2,1,achtung,0,0,1700,Attention!
3/20/24,16:21:49,007,3,SMf2,2,SMf2_T1,0,0,2800,c
3/20/24,16:21:49,007,3,SMf2,3,SMf2_T2,0,0,2800,r
3/20/24,16:21:49,007,3,SMf2,4,SMf2_T3,0,0,2800,s
3/20/24,16:21:49,007,3,SMf2,5,SMf2_T4,0,0,2800,f
3/20/24,16:21:49,007,3,SMf2,6,SMf2_T5,0,0,2800,h
3/20/24,16:21:49,007,3,SMf2,7,SMf2_T6,0,0,2800,q
3/20/24,16:21:49,007,3,SMf2,8,SMf2_T7,0,0,2800,b
3/20/24,16:21:49,007,3,SMf2,9,SMf2_T8,0,0,2800,j
3/20/24,16:21:49,007,3,SMf2,10,SMf2_T9,0,0,2800,y
3/20/24,16:21:49,007,3,SMf2,11,SMf2_T10,0,0,2800,o
3/20/24,16:21:49,007,3,SMf2,12,SMf2_T11,0,0,2800,m
3/20/24,16:21:49,007,3,SMf2,13,SMf2_T12,0,0,2800,x
3/20/24,16:21:49,007,4,test_fi_as1,1,blank_1st,0,0,1500,0
3/20/24,16:21:49,007,4,test_fi_as1,2,fi_as1,30,0,2040,BRUTE
3/20/24,16:21:49,007,4,test_fi_as1,3,blank7,0,0,1259,0
3/20/24,16:21:49,007,4,test_fi_as1,4,fi_as1,30,0,991,RICHTER
3/20/24,16:21:49,007,4,test_fi_as1,5,blank10,0,0,1612,0
3/20/24,16:21:49,007,4,test_fi_as1,6,fi_as1,30,0,788,HOUSE
3/20/24,16:21:49,007,4,test_fi_as1,7,blank2,0,0,671,0
3/20/24,16:21:49,007,4,test_fi_as1,8,fi_as1,30,0,801,PRIESTS
3/20/24,16:21:49,007,4,test_fi_as1,9,blank5,0,0,1024,0
3/20/24,16:21:49,007,4,test_fi_as1,10,fi_as1,30,0,510,PEPPER
3/20/24,16:21:49,007,4,test_fi_as1,11,blank5,0,0,1024,0
3/20/24,16:21:49,007,4,test_fi_as1,12,fi_as1,30,0,584,WOBBLY
3/20/24,16:21:49,007,4,test_fi_as1,13,blank8,0,0,1376,0
3/20/24,16:21:49,007,4,test_fi_as1,14,fi_as1,38,0,606,BARNDOOR
3/20/24,16:21:49,007,4,test_fi_as1,15,blank4,0,0,906,0
3/20/24,16:21:49,007,4,test_fi_as1,16,fi_as1,30,0,449,PUDDING
3/20/24,16:21:49,007,4,test_fi_as1,17,blank8,0,0,1376,0
3/20/24,16:21:49,007,4,test_fi_as1,18,fi_as1,38,0,734,CARROT
3/20/24,16:21:49,007,4,test_fi_as1,19,blank4,0,0,906,0
3/20/24,16:21:49,007,4,test_fi_as1,20,fi_as1,30,0,603,DOCTOR
3/20/24,16:21:49,007,4,test_fi_as1,21,blank1,0,0,553,0
3/20/24,16:21:49,007,4,test_fi_as1,22,fi_as1,38,0,804,METAL
3/20/24,16:21:49,007,4,test_fi_as1,23,blank5,0,0,1024,0
3/20/24,16:21:49,007,4,test_fi_as1,24,fi_as1,30,0,713,RULER
3/20/24,16:21:49,007,4,test_fi_as1,25,blank10,0,0,1612,0
3/20/24,16:21:49,007,4,test_fi_as1,26,fi_as1,30,0,642,LURCH
3/20/24,16:21:49,007,4,test_fi_as1,27,blank10,0,0,1612,0
3/20/24,16:21:49,007,4,test_fi_as1,28,fi_as1,38,0,734,GRAVEL
3/20/24,16:21:49,007,4,test_fi_as1,29,blank5,0,0,1024,0
3/20/24,16:21:49,007,4,test_fi_as1,30,fi_as1,30,0,589,SEEDING
3/20/24,16:21:49,007,4,test_fi_as1,31,blank1,0,0,553,0
3/20/24,16:21:49,007,4,test_fi_as1,32,fi_as1,30,0,703,VOGUE
3/20/24,16:21:49,007,4,test_fi_as1,33,blank9,0,0,1494,0
3/20/24,16:21:49,007,4,test_fi_as1,34,fi_as1,38,0,532,PLAIN
3/20/24,16:21:49,007,4,test_fi_as1,35,blank2,0,0,671,0
3/20/24,16:21:49,007,4,test_fi_as1,36,fi_as1,30,0,836,GOGGLE
3/20/24,16:21:49,007,4,test_fi_as1,37,blank7,0,0,1259,0
3/20/24,16:21:49,007,4,test_fi_as1,38,fi_as1,30,0,829,ZIPPER
3/20/24,16:21:49,007,4,test_fi_as1,39,blank1,0,0,553,0
3/20/24,16:21:49,007,4,test_fi_as1,40,fi_as1,30,0,702,GOLDEN
3/20/24,16:21:49,007,4,test_fi_as1,41,blank8,0,0,1376,0
3/20/24,16:21:49,007,4,test_fi_as1,42,fi_as1,30,0,472,FUELS
3/20/24,16:21:49,007,4,test_fi_as1,43,blank4,0,0,906,0
3/20/24,16:21:49,007,4,test_fi_as1,44,fi_as1,30,0,568,BOSTON
3/20/24,16:21:49,007,4,test_fi_as1,45,blank10,0,0,1612,0
3/20/24,16:21:49,007,4,test_fi_as1,46,fi_as1,38,0,671,FLAME
3/20/24,16:21:49,007,4,test_fi_as1,47,blank3,0,0,788,0
3/20/24,16:21:49,007,4,test_fi_as1,48,fi_as1,30,0,963,RESCUE
3/20/24,16:21:49,007,4,test_fi_as1,49,blank6,0,0,1141,0
3/20/24,16:21:49,007,4,test_fi_as1,50,fi_as1,30,0,620,CLINGING
3/20/24,16:21:49,007,4,test_fi_as1,51,blank3,0,0,788,0
3/20/24,16:21:49,007,4,test_fi_as1,52,fi_as1,30,0,475,BETTOR
3/20/24,16:21:49,007,4,test_fi_as1,53,blank9,0,0,1494,0
3/20/24,16:21:49,007,4,test_fi_as1,54,fi_as1,38,0,683,ORGANS
3/20/24,16:21:49,007,4,test_fi_as1,55,blank7,0,0,1259,0
3/20/24,16:21:49,007,4,test_fi_as1,56,fi_as1,30,0,451,SCHOOL
3/20/24,16:21:49,007,4,test_fi_as1,57,blank7,0,0,1259,0
3/20/24,16:21:49,007,4,test_fi_as1,58,fi_as1,30,0,509,COPPER
3/20/24,16:21:49,007,4,test_fi_as1,59,blank9,0,0,1494,0
3/20/24,16:21:49,007,4,test_fi_as1,60,fi_as1,30,0,491,CUTEY
3/20/24,16:21:49,007,4,test_fi_as1,61,blank2,0,0,671,0
3/20/24,16:21:49,007,4,test_fi_as1,62,fi_as1,30,0,557,BUTTER
3/20/24,16:21:49,007,4,test_fi_as1,63,blank3,0,0,788,0
3/20/24,16:21:49,007,4,test_fi_as1,64,fi_as1,38,0,590,ORANGE
3/20/24,16:21:49,007,4,test_fi_as1,65,blank9,0,0,1494,0
3/20/24,16:21:49,007,4,test_fi_as1,66,fi_as1,30,0,649,COUCH
3/20/24,16:21:49,007,4,test_fi_as1,67,blank4,0,0,906,0
3/20/24,16:21:49,007,4,test_fi_as1,68,fi_as1,30,0,457,INSECT
3/20/24,16:21:49,007,4,test_fi_as1,69,blank6,0,0,1141,0
3/20/24,16:21:49,007,4,test_fi_as1,70,fi_as1,30,0,311,GLITTER
3/20/24,16:21:49,007,4,test_fi_as1,71,blank6,0,0,1141,0
3/20/24,16:21:49,007,4,test_fi_as1,72,fi_as1,30,0,732,WINDOW
3/20/24,16:21:49,007,4,test_fi_as1,73,blank2,0,0,671,0
3/20/24,16:21:49,007,4,test_fi_as1,74,fi_as1,30,0,523,MUTTER
3/20/24,16:21:49,007,4,test_fi_as1,75,blank1,0,0,553,0
3/20/24,16:21:49,007,4,test_fi_as1,76,fi_as1,38,0,512,CLAPPING
3/20/24,16:21:49,007,4,test_fi_as1,77,blank6,0,0,1141,0
3/20/24,16:21:49,007,4,test_fi_as1,78,fi_as1,38,0,533,DAMPER
3/20/24,16:21:49,007,4,test_fi_as1,79,blank3,0,0,788,0
3/20/24,16:21:49,007,4,test_fi_as1,80,fi_as1,30,0,471,HOTEL
3/20/24,16:21:49,007,5,test_fi_as2,1,blank_1st,0,0,1500,0
3/20/24,16:21:49,007,5,test_fi_as2,2,fi_as2,38,0,786,IMPACT
3/20/24,16:21:49,007,5,test_fi_as2,3,blank4,0,0,906,0
3/20/24,16:21:49,007,5,test_fi_as2,4,fi_as2,38,0,621,CARTOON
3/20/24,16:21:49,007,5,test_fi_as2,5,blank4,0,0,906,0
3/20/24,16:21:49,007,5,test_fi_as2,6,fi_as2,38,0,470,BAGEL
3/20/24,16:21:49,007,5,test_fi_as2,7,blank8,0,0,1376,0
3/20/24,16:21:49,007,5,test_fi_as2,8,fi_as2,38,0,547,HAMMER
3/20/24,16:21:49,007,5,test_fi_as2,9,blank6,0,0,1141,0
3/20/24,16:21:49,007,5,test_fi_as2,10,fi_as2,30,0,485,LESSON
3/20/24,16:21:49,007,5,test_fi_as2,11,blank1,0,0,553,0
3/20/24,16:21:49,007,5,test_fi_as2,12,fi_as2,30,0,612,GUILTY
3/20/24,16:21:49,007,5,test_fi_as2,13,blank5,0,0,1024,0
3/20/24,16:21:49,007,5,test_fi_as2,14,fi_as2,30,0,633,PAPER
3/20/24,16:21:49,007,5,test_fi_as2,15,blank3,0,0,788,0
3/20/24,16:21:49,007,5,test_fi_as2,16,fi_as2,30,0,1143,DINNER
3/20/24,16:21:49,007,5,test_fi_as2,17,blank5,0,0,1024,0
3/20/24,16:21:49,007,5,test_fi_as2,18,fi_as2,30,0,1046,SCORPION
3/20/24,16:21:49,007,5,test_fi_as2,19,blank7,0,0,1259,0
3/20/24,16:21:49,007,5,test_fi_as2,20,fi_as2,30,0,776,TENTH
3/20/24,16:21:49,007,5,test_fi_as2,21,blank4,0,0,906,0
3/20/24,16:21:49,007,5,test_fi_as2,22,fi_as2,30,0,1107,IMPLORE
3/20/24,16:21:49,007,5,test_fi_as2,23,blank8,0,0,1376,0
3/20/24,16:21:49,007,5,test_fi_as2,24,fi_as2,30,0,773,LIGHT
3/20/24,16:21:49,007,5,test_fi_as2,25,blank3,0,0,788,0
3/20/24,16:21:49,007,5,test_fi_as2,26,fi_as2,30,0,382,BUSHES
3/20/24,16:21:49,007,5,test_fi_as2,27,blank5,0,0,1024,0
3/20/24,16:21:49,007,5,test_fi_as2,28,fi_as2,30,0,603,CHESS
3/20/24,16:21:49,007,5,test_fi_as2,29,blank2,0,0,671,0
3/20/24,16:21:49,007,5,test_fi_as2,30,fi_as2,38,0,464,CRACKER
3/20/24,16:21:49,007,5,test_fi_as2,31,blank7,0,0,1259,0
3/20/24,16:21:49,007,5,test_fi_as2,32,fi_as2,30,0,665,PUPPY
3/20/24,16:21:49,007,5,test_fi_as2,33,blank6,0,0,1141,0
3/20/24,16:21:49,007,5,test_fi_as2,34,fi_as2,30,0,463,SUNNY
3/20/24,16:21:49,007,5,test_fi_as2,35,blank10,0,0,1612,0
3/20/24,16:21:49,007,5,test_fi_as2,36,fi_as2,30,0,562,SWITCH
3/20/24,16:21:49,007,5,test_fi_as2,37,blank7,0,0,1259,0
3/20/24,16:21:49,007,5,test_fi_as2,38,fi_as2,30,0,432,GRIND
3/20/24,16:21:49,007,5,test_fi_as2,39,blank9,0,0,1494,0
3/20/24,16:21:49,007,5,test_fi_as2,40,fi_as2,30,0,729,JUNGLE
3/20/24,16:21:49,007,5,test_fi_as2,41,blank10,0,0,1612,0
3/20/24,16:21:49,007,5,test_fi_as2,42,fi_as2,30,0,641,WOOLLEY
3/20/24,16:21:49,007,5,test_fi_as2,43,blank7,0,0,1259,0
3/20/24,16:21:49,007,5,test_fi_as2,44,fi_as2,30,0,628,RUSTLING
3/20/24,16:21:49,007,5,test_fi_as2,45,blank1,0,0,553,0
3/20/24,16:21:49,007,5,test_fi_as2,46,fi_as2,30,0,628,GROSS
3/20/24,16:21:49,007,5,test_fi_as2,47,blank9,0,0,1494,0
3/20/24,16:21:49,007,5,test_fi_as2,48,fi_as2,30,0,516,WINTER
3/20/24,16:21:49,007,5,test_fi_as2,49,blank4,0,0,906,0
3/20/24,16:21:49,007,5,test_fi_as2,50,fi_as2,38,0,602,FLASH
3/20/24,16:21:49,007,5,test_fi_as2,51,blank1,0,0,553,0
3/20/24,16:21:49,007,5,test_fi_as2,52,fi_as2,30,0,756,PUDDING
3/20/24,16:21:49,007,5,test_fi_as2,53,blank1,0,0,553,0
3/20/24,16:21:49,007,5,test_fi_as2,54,fi_as2,30,0,583,SMITH
3/20/24,16:21:49,007,5,test_fi_as2,55,blank6,0,0,1141,0
3/20/24,16:21:49,007,5,test_fi_as2,56,fi_as2,38,0,632,MAILED
3/20/24,16:21:49,007,5,test_fi_as2,57,blank3,0,0,788,0
3/20/24,16:21:49,007,5,test_fi_as2,58,fi_as2,30,0,662,COPING
3/20/24,16:21:49,007,5,test_fi_as2,59,blank3,0,0,788,0
3/20/24,16:21:49,007,5,test_fi_as2,60,fi_as2,30,0,787,ZIPPER
3/20/24,16:21:49,007,5,test_fi_as2,61,blank8,0,0,1376,0
3/20/24,16:21:49,007,5,test_fi_as2,62,fi_as2,30,0,1611,GETTING
3/20/24,16:21:49,007,5,test_fi_as2,63,blank2,0,0,671,0
3/20/24,16:21:49,007,5,test_fi_as2,64,fi_as2,30,0,629,RUSTLE
3/20/24,16:21:49,007,5,test_fi_as2,65,blank10,0,0,1612,0
3/20/24,16:21:49,007,5,test_fi_as2,66,fi_as2,38,0,592,STAMPS
3/20/24,16:21:49,007,5,test_fi_as2,67,blank2,0,0,671,0
3/20/24,16:21:49,007,5,test_fi_as2,68,fi_as2,38,0,1365,STRANGE
3/20/24,16:21:49,007,5,test_fi_as2,69,blank6,0,0,1141,0
3/20/24,16:21:49,007,5,test_fi_as2,70,fi_as2,30,0,734,FEEDER
3/20/24,16:21:49,007,5,test_fi_as2,71,blank9,0,0,1494,0
3/20/24,16:21:49,007,5,test_fi_as2,72,fi_as2,30,0,962,REPTILE
3/20/24,16:21:49,007,5,test_fi_as2,73,blank8,0,0,1376,0
3/20/24,16:21:49,007,5,test_fi_as2,74,fi_as2,30,0,754,FISHER
3/20/24,16:21:49,007,5,test_fi_as2,75,blank9,0,0,1494,0
3/20/24,16:21:49,007,5,test_fi_as2,76,fi_as2,30,0,614,NOBLE
3/20/24,16:21:49,007,5,test_fi_as2,77,blank2,0,0,671,0
3/20/24,16:21:49,007,5,test_fi_as2,78,fi_as2,30,0,481,WINGS
3/20/24,16:21:49,007,5,test_fi_as2,79,blank5,0,0,1024,0
3/20/24,16:21:49,007,5,test_fi_as2,80,fi_as2,38,0,692,FABRIC
3/20/24,16:21:49,007,6,SMf2_Abr,1,SMf2_Abr12,SMf_Pos14,1,2358,
