date,time,subject,blocknum,blockcode,trialnum,trialcode,response,latency,correct,stimulus1,vpcode_hd1
3/9/24,21:21:20,8987,1,SM1Practice,1,achtung,0,1700,0,Attention!,0
3/9/24,21:21:20,8987,1,SM1Practice,2,SM1_P_T1,0,2800,0,Chair,0
3/9/24,21:21:20,8987,1,SM1Practice,3,SM1_P_T2,Ctrl+'Q',644,1,Lamp,0
3/9/24,21:27:00,2345,1,SM1Practice,1,achtung,0,1700,0,Attention!,0
3/9/24,21:27:00,2345,1,SM1Practice,2,SM1_P_T1,0,2800,0,Chair,0
3/9/24,21:27:00,2345,1,SM1Practice,3,SM1_P_T2,0,2800,0,Lamp,0
3/9/24,21:27:00,2345,1,SM1Practice,4,SM1_P_T3,0,2800,0,Phone,0
3/9/24,21:27:00,2345,2,SM1Practice_Abr,1,SM1_P_Abr1,sds,1267,0,Carpet,0
3/9/24,21:27:00,2345,2,SM1Practice_Abr,2,SM1_P_Abr2,fdsa,1018,0,Chair,0
3/9/24,21:27:00,2345,2,SM1Practice_Abr,3,SM1_P_Abr3,adsds,1086,0,Phone,0
3/9/24,21:27:00,2345,3,SM1Test,1,achtung,0,1700,0,Attention!,0
3/9/24,21:27:00,2345,3,SM1Test,2,SM1_T1,0,2800,0,Angel,0
3/9/24,21:27:00,2345,3,SM1Test,3,SM1_T2,0,2800,0,Marble,0
3/9/24,21:27:00,2345,3,SM1Test,4,SM1_T3,0,2800,0,Leg,0
3/9/24,21:27:00,2345,3,SM1Test,5,SM1_T4,0,2800,0,Wave,0
3/9/24,21:27:00,2345,3,SM1Test,6,SM1_T5,0,2800,0,Atlas,0
3/9/24,21:27:00,2345,3,SM1Test,7,SM1_T6,0,2800,0,Scarf,0
3/9/24,21:27:00,2345,3,SM1Test,8,SM1_T7,0,2800,0,Stew,0
3/9/24,21:27:00,2345,3,SM1Test,9,SM1_T8,0,2800,0,Goalkeeper,0
3/9/24,21:27:00,2345,3,SM1Test,10,SM1_T9,0,2800,0,Cinema,0
3/9/24,21:27:00,2345,3,SM1Test,11,SM1_T10,0,2800,0,Biscuit,0
3/9/24,21:27:00,2345,3,SM1Test,12,SM1_T11,0,2800,0,Maple,0
3/9/24,21:27:00,2345,3,SM1Test,13,SM1_T12,0,2800,0,Compass,0
3/9/24,21:27:00,2345,3,SM1Test,14,SM1_T13,0,2800,0,Spaceship,0
3/9/24,21:27:00,2345,3,SM1Test,15,SM1_T14,0,2800,0,Planet,0
3/9/24,21:27:00,2345,3,SM1Test,16,SM1_T15,0,2800,0,Pet,0
3/9/24,21:27:00,2345,3,SM1Test,17,SM1_T16,0,2800,0,Starfish,0
3/9/24,21:27:00,2345,3,SM1Test,18,SM1_T17,0,2800,0,Island,0
3/9/24,21:27:00,2345,3,SM1Test,19,SM1_T18,0,2800,0,Shower,0
3/9/24,21:27:00,2345,3,SM1Test,20,SM1_T19,0,2800,0,Mango,0
3/9/24,21:27:00,2345,3,SM1Test,21,SM1_T20,0,2800,0,Balloon,0
3/9/24,21:27:00,2345,4,Pract_simon1,1,diaIC,200,2519,1,+,0
3/9/24,21:27:00,2345,4,Pract_simon1,2,recIC,208,648,1,+,0
3/9/24,21:27:00,2345,4,Pract_simon1,3,diaCO,Ctrl+'Q',1172,1,+,0
3/10/24,14:19:14,1234,1,SM1Practice,1,achtung,0,1700,0,Attention!,0
3/10/24,14:19:14,1234,1,SM1Practice,2,SM1_P_T1,0,2800,0,Chair,0
3/10/24,14:19:14,1234,1,SM1Practice,3,SM1_P_T2,0,2800,0,Lamp,0
3/10/24,14:19:14,1234,1,SM1Practice,4,SM1_P_T3,0,2800,0,Phone,0
3/10/24,14:19:14,1234,2,SM1Practice_Abr,1,SM1_P_Abr1,sdf,3288,0,Carpet,0
3/10/24,14:19:14,1234,2,SM1Practice_Abr,2,SM1_P_Abr2,asd,941,0,Chair,0
3/10/24,14:19:14,1234,2,SM1Practice_Abr,3,SM1_P_Abr3,asd,980,0,Phone,0
3/10/24,14:19:14,1234,3,SM1Test,1,achtung,0,1700,0,Attention!,0
3/10/24,14:19:14,1234,3,SM1Test,2,SM1_T1,0,2800,0,Angel,0
3/10/24,14:19:14,1234,3,SM1Test,3,SM1_T2,0,2800,0,Marble,0
3/10/24,14:19:14,1234,3,SM1Test,4,SM1_T3,0,2800,0,Leg,0
3/10/24,14:19:14,1234,3,SM1Test,5,SM1_T4,0,2800,0,Wave,0
3/10/24,14:19:14,1234,3,SM1Test,6,SM1_T5,0,2800,0,Atlas,0
3/10/24,14:19:14,1234,3,SM1Test,7,SM1_T6,0,2800,0,Scarf,0
3/10/24,14:19:14,1234,3,SM1Test,8,SM1_T7,0,2800,0,Stew,0
3/10/24,14:19:14,1234,3,SM1Test,9,SM1_T8,0,2800,0,Goalkeeper,0
3/10/24,14:19:14,1234,3,SM1Test,10,SM1_T9,0,2800,0,Cinema,0
3/10/24,14:19:14,1234,3,SM1Test,11,SM1_T10,0,2800,0,Biscuit,0
3/10/24,14:19:14,1234,3,SM1Test,12,SM1_T11,0,2800,0,Maple,0
3/10/24,14:19:14,1234,3,SM1Test,13,SM1_T12,0,2800,0,Compass,0
3/10/24,14:19:14,1234,3,SM1Test,14,SM1_T13,0,2800,0,Spaceship,0
3/10/24,14:19:14,1234,3,SM1Test,15,SM1_T14,0,2800,0,Planet,0
3/10/24,14:19:14,1234,3,SM1Test,16,SM1_T15,0,2800,0,Pet,0
3/10/24,14:19:14,1234,3,SM1Test,17,SM1_T16,0,2800,0,Starfish,0
3/10/24,14:19:14,1234,3,SM1Test,18,SM1_T17,0,2800,0,Island,0
3/10/24,14:19:14,1234,3,SM1Test,19,SM1_T18,0,2800,0,Shower,0
3/10/24,14:19:14,1234,3,SM1Test,20,SM1_T19,0,2800,0,Mango,0
3/10/24,14:19:14,1234,3,SM1Test,21,SM1_T20,0,2800,0,Balloon,0
3/10/24,14:19:14,1234,4,Pract_simon1,1,diaIC,200,1948,1,+,0
3/10/24,14:19:14,1234,4,Pract_simon1,2,recIC,208,1756,1,+,0
3/10/24,14:19:14,1234,4,Pract_simon1,3,recCO,Ctrl+'Q',0,0,+,0
3/11/24,12:45:17,999,1,SM1Practice,1,achtung,0,1700,0,Attention!,0
3/11/24,12:45:17,999,1,SM1Practice,2,SM1_P_T1,0,2800,0,Chair,0
3/11/24,12:45:17,999,1,SM1Practice,3,SM1_P_T2,0,2800,0,Lamp,0
3/11/24,12:45:17,999,1,SM1Practice,4,SM1_P_T3,0,2800,0,Phone,0
3/11/24,12:45:17,999,2,SM1Practice_Abr,1,SM1_P_Abr1,chair,3993,0,Carpet,0
3/11/24,12:45:17,999,2,SM1Practice_Abr,2,SM1_P_Abr2,phone,1738,0,Chair,0
3/11/24,12:45:17,999,2,SM1Practice_Abr,3,SM1_P_Abr3,chair,1433,0,Phone,0
3/11/24,12:45:17,999,3,SM1Test,1,achtung,0,1700,0,Attention!,0
3/11/24,12:45:17,999,3,SM1Test,2,SM1_T1,0,2800,0,Angel,0
3/11/24,12:45:17,999,3,SM1Test,3,SM1_T2,0,2800,0,Marble,0
3/11/24,12:45:17,999,3,SM1Test,4,SM1_T3,0,2800,0,Leg,0
3/11/24,12:45:17,999,3,SM1Test,5,SM1_T4,0,2800,0,Wave,0
3/11/24,12:45:17,999,3,SM1Test,6,SM1_T5,0,2800,0,Atlas,0
3/11/24,12:45:17,999,3,SM1Test,7,SM1_T6,0,2800,0,Scarf,0
3/11/24,12:45:17,999,3,SM1Test,8,SM1_T7,0,2800,0,Stew,0
3/11/24,12:45:17,999,3,SM1Test,9,SM1_T8,0,2800,0,Goalkeeper,0
3/11/24,12:45:17,999,3,SM1Test,10,SM1_T9,0,2800,0,Cinema,0
3/11/24,12:45:17,999,3,SM1Test,11,SM1_T10,0,2800,0,Biscuit,0
3/11/24,12:45:17,999,3,SM1Test,12,SM1_T11,0,2800,0,Maple,0
3/11/24,12:45:17,999,3,SM1Test,13,SM1_T12,0,2800,0,Compass,0
3/11/24,12:45:17,999,3,SM1Test,14,SM1_T13,0,2800,0,Spaceship,0
3/11/24,12:45:17,999,3,SM1Test,15,SM1_T14,0,2800,0,Planet,0
3/11/24,12:45:17,999,3,SM1Test,16,SM1_T15,0,2800,0,Pet,0
3/11/24,12:45:17,999,3,SM1Test,17,SM1_T16,0,2800,0,Starfish,0
3/11/24,12:45:17,999,3,SM1Test,18,SM1_T17,0,2800,0,Island,0
3/11/24,12:45:17,999,3,SM1Test,19,SM1_T18,0,2800,0,Shower,0
3/11/24,12:45:17,999,3,SM1Test,20,SM1_T19,0,2800,0,Mango,0
3/11/24,12:45:17,999,3,SM1Test,21,SM1_T20,0,2800,0,Balloon,0
3/11/24,12:45:17,999,4,Pract_simon1,1,diaCO,200,1399,1,+,0
3/11/24,12:45:17,999,4,Pract_simon1,2,recCO,208,469,1,+,0
3/11/24,12:45:17,999,4,Pract_simon1,3,diaIC,200,342,1,+,0
3/11/24,12:45:17,999,4,Pract_simon1,4,recIC,208,643,1,+,0
3/11/24,12:45:17,999,4,Pract_simon1,5,recCO,208,549,1,+,0
3/11/24,12:45:17,999,4,Pract_simon1,6,diaIC,208,361,0,+,0
3/11/24,12:45:17,999,5,Test_simon1,1,diaIC,200,854,1,+,0
3/11/24,12:45:17,999,5,Test_simon1,2,diaCO,200,507,1,+,0
3/11/24,12:45:17,999,5,Test_simon1,3,recIC,200,387,0,+,0
3/11/24,12:45:17,999,5,Test_simon1,4,recIC,208,514,1,+,0
3/11/24,12:45:17,999,5,Test_simon1,5,recCO,208,580,1,+,0
3/11/24,12:45:17,999,5,Test_simon1,6,diaIC,200,624,1,+,0
3/11/24,12:45:17,999,5,Test_simon1,7,recIC,200,732,0,+,0
3/11/24,12:45:17,999,5,Test_simon1,8,diaIC,208,670,0,+,0
3/11/24,12:45:17,999,5,Test_simon1,9,diaIC,200,536,1,+,0
3/11/24,12:45:17,999,5,Test_simon1,10,diaIC,200,661,1,+,0
3/11/24,12:45:17,999,5,Test_simon1,11,diaCO,200,529,1,+,0
3/11/24,12:45:17,999,5,Test_simon1,12,diaIC,200,649,1,+,0
3/11/24,12:45:17,999,5,Test_simon1,13,recIC,208,645,1,+,0
3/11/24,12:45:17,999,5,Test_simon1,14,recCO,208,631,1,+,0
3/11/24,12:45:17,999,5,Test_simon1,15,diaCO,200,504,1,+,0
3/11/24,12:45:17,999,5,Test_simon1,16,diaCO,200,477,1,+,0
3/11/24,12:45:17,999,5,Test_simon1,17,diaCO,200,547,1,+,0
3/11/24,12:45:17,999,5,Test_simon1,18,diaIC,200,1042,1,+,0
3/11/24,12:45:17,999,5,Test_simon1,19,recCO,208,798,1,+,0
3/11/24,12:45:17,999,5,Test_simon1,20,recIC,208,734,1,+,0
3/11/24,12:45:17,999,5,Test_simon1,21,diaCO,200,636,1,+,0
3/11/24,12:45:17,999,5,Test_simon1,22,recCO,208,578,1,+,0
3/11/24,12:45:17,999,5,Test_simon1,23,recCO,208,457,1,+,0
3/11/24,12:45:17,999,5,Test_simon1,24,recCO,208,387,1,+,0
3/11/24,12:45:17,999,5,Test_simon1,25,recCO,208,170,1,+,0
3/11/24,12:45:17,999,5,Test_simon1,26,recIC,208,841,1,+,0
3/11/24,12:45:17,999,5,Test_simon1,27,recCO,208,317,1,+,0
3/11/24,12:45:17,999,5,Test_simon1,28,recIC,208,500,1,+,0
3/11/24,12:45:17,999,5,Test_simon1,29,diaCO,200,460,1,+,0
3/11/24,12:45:17,999,5,Test_simon1,30,diaCO,200,343,1,+,0
3/11/24,12:45:17,999,5,Test_simon1,31,diaIC,208,760,0,+,0
3/11/24,12:45:17,999,5,Test_simon1,32,diaIC,208,744,0,+,0
3/11/24,12:45:17,999,5,Test_simon1,33,recIC,208,103,1,+,0
3/11/24,12:45:17,999,5,Test_simon1,34,recCO,200,166,0,+,0
3/11/24,12:45:17,999,5,Test_simon1,35,recIC,208,172,1,+,0
3/11/24,12:45:17,999,5,Test_simon1,36,recCO,208,372,1,+,0
3/11/24,12:45:17,999,5,Test_simon1,37,diaCO,200,498,1,+,0
3/11/24,12:45:17,999,5,Test_simon1,38,recIC,200,484,0,+,0
3/11/24,12:45:17,999,5,Test_simon1,39,diaCO,200,606,1,+,0
3/11/24,12:45:17,999,5,Test_simon1,40,recCO,208,902,1,+,0
3/11/24,12:45:17,999,5,Test_simon1,41,diaCO,200,293,1,+,0
3/11/24,12:45:17,999,5,Test_simon1,42,diaCO,200,345,1,+,0
3/11/24,12:45:17,999,5,Test_simon1,43,recCO,208,354,1,+,0
3/11/24,12:45:17,999,5,Test_simon1,44,recIC,200,325,0,+,0
3/11/24,12:45:17,999,5,Test_simon1,45,diaCO,200,332,1,+,0
3/11/24,12:45:17,999,5,Test_simon1,46,recIC,200,278,0,+,0
3/11/24,12:45:17,999,5,Test_simon1,47,recIC,208,19,1,+,0
3/11/24,12:45:17,999,5,Test_simon1,48,recIC,200,381,0,+,0
3/11/24,12:45:17,999,5,Test_simon1,49,recIC,208,335,1,+,0
3/11/24,12:45:17,999,5,Test_simon1,50,diaIC,208,375,0,+,0
3/11/24,12:45:17,999,5,Test_simon1,51,diaCO,200,303,1,+,0
3/11/24,12:45:17,999,5,Test_simon1,52,diaIC,208,304,0,+,0
3/11/24,12:45:17,999,5,Test_simon1,53,diaIC,200,133,1,+,0
3/11/24,12:45:17,999,5,Test_simon1,54,recIC,200,306,0,+,0
3/11/24,12:45:17,999,5,Test_simon1,55,diaIC,200,231,1,+,0
3/11/24,12:45:17,999,5,Test_simon1,56,recCO,200,230,0,+,0
3/11/24,12:45:17,999,5,Test_simon1,57,diaIC,200,276,1,+,0
3/11/24,12:45:17,999,5,Test_simon1,58,diaCO,200,140,1,+,0
3/11/24,12:45:17,999,5,Test_simon1,59,diaCO,200,71,1,+,0
3/11/24,12:45:17,999,5,Test_simon1,60,diaIC,200,104,1,+,0
3/11/24,12:45:17,999,5,Test_simon1,61,recCO,200,59,0,+,0
3/11/24,12:45:17,999,5,Test_simon1,62,recCO,200,257,0,+,0
3/11/24,12:45:17,999,5,Test_simon1,63,recCO,208,26,1,+,0
3/11/24,12:45:17,999,5,Test_simon1,64,diaIC,200,223,1,+,0
3/11/24,12:45:17,999,5,Test_simon1,65,diaIC,208,356,0,+,0
3/11/24,12:45:17,999,5,Test_simon1,66,recCO,200,162,0,+,0
3/11/24,12:45:17,999,5,Test_simon1,67,recIC,200,207,0,+,0
3/11/24,12:45:17,999,5,Test_simon1,68,diaCO,200,147,1,+,0
3/11/24,12:45:17,999,5,Test_simon1,69,recCO,200,1001,0,+,0
3/11/24,12:45:17,999,5,Test_simon1,70,recIC,200,1063,0,+,0
3/11/24,12:45:17,999,5,Test_simon1,71,diaCO,208,206,0,+,0
3/11/24,12:45:17,999,5,Test_simon1,72,diaIC,200,149,1,+,0
3/11/24,12:45:17,999,5,Test_simon1,73,diaIC,200,1927,1,+,0
3/11/24,12:45:17,999,5,Test_simon1,74,recIC,200,608,0,+,0
3/11/24,12:45:17,999,5,Test_simon1,75,diaIC,200,265,1,+,0
3/11/24,12:45:17,999,5,Test_simon1,76,diaCO,200,29,1,+,0
3/11/24,12:45:17,999,5,Test_simon1,77,diaIC,200,330,1,+,0
3/11/24,12:45:17,999,5,Test_simon1,78,diaIC,208,241,0,+,0
3/11/24,12:45:17,999,5,Test_simon1,79,recIC,200,606,0,+,0
3/11/24,12:45:17,999,5,Test_simon1,80,recIC,200,612,0,+,0
3/11/24,12:45:17,999,6,SM1Test_Abr,1,SM1_Abr1,Bear,2402,0,Ocean,0
3/11/24,12:45:17,999,6,SM1Test_Abr,2,SM1_Abr2,Tesgt,2416,0,Pet,0
3/11/24,12:45:17,999,6,SM1Test_Abr,3,SM1_Abr3,fkpkfoef,1268,0,Shower,0
3/11/24,12:45:17,999,6,SM1Test_Abr,4,SM1_Abr4,ekofwkfok,597,0,Spaceship,0
3/11/24,12:45:17,999,6,SM1Test_Abr,5,SM1_Abr5,owfkw,281,0,Leg,0
3/11/24,12:45:17,999,6,SM1Test_Abr,6,SM1_Abr6,ewfewf,339,0,Goalkeeper,0
3/11/24,12:45:17,999,6,SM1Test_Abr,7,SM1_Abr7,,61,0,Scarf,0
3/11/24,12:45:17,999,6,SM1Test_Abr,8,SM1_Abr8,f,73,0,Atlas,0
3/11/24,12:45:17,999,6,SM1Test_Abr,9,SM1_Abr9,,52,0,Tennis,0
3/11/24,12:45:17,999,6,SM1Test_Abr,10,SM1_Abr10,,61,0,Bag,0
3/11/24,12:45:17,999,6,SM1Test_Abr,11,SM1_Abr11,,59,0,Field,0
3/11/24,12:45:17,999,6,SM1Test_Abr,12,SM1_Abr12,ewf,71,0,Pool,0
3/11/24,12:45:17,999,6,SM1Test_Abr,13,SM1_Abr13,f,54,0,Towel,0
3/11/24,12:45:17,999,6,SM1Test_Abr,14,SM1_Abr14,ewf,82,0,Island,0
3/11/24,12:45:17,999,6,SM1Test_Abr,15,SM1_Abr15,few,80,0,Bicycle,0
3/11/24,12:45:17,999,6,SM1Test_Abr,16,SM1_Abr16,,78,0,Chimney,0
3/11/24,12:45:17,999,6,SM1Test_Abr,17,SM1_Abr17,,97,0,Acorn,0
3/11/24,12:45:17,999,6,SM1Test_Abr,18,SM1_Abr18,,97,0,Mango,0
3/11/24,12:45:17,999,6,SM1Test_Abr,19,SM1_Abr19,,68,0,Planet,0
3/11/24,12:45:17,999,6,SM1Test_Abr,20,SM1_Abr20,f,220,0,Bird,0
3/12/24,20:11:52,000,1,SM1Practice,1,achtung,0,1700,0,Attention!,0
3/12/24,20:11:52,000,1,SM1Practice,2,SM1_P_T1,0,2800,0,Chair,0
3/12/24,20:11:52,000,1,SM1Practice,3,SM1_P_T2,0,2800,0,Lamp,0
3/12/24,20:11:52,000,1,SM1Practice,4,SM1_P_T3,0,2800,0,Phone,0
3/12/24,20:11:52,000,2,SM1Practice_Abr,1,SM1_P_Abr1,Lamp,8930,1,Carpet,0
3/12/24,20:11:52,000,2,SM1Practice_Abr,2,SM1_P_Abr2,Window,20514,1,Chair,0
3/12/24,20:11:52,000,2,SM1Practice_Abr,3,SM1_P_Abr3,Rock,3869,1,Phone,0
3/12/24,20:11:52,000,3,SM1Test,1,achtung,0,1700,0,Attention!,0
3/12/24,20:11:52,000,3,SM1Test,2,SM1_T1,0,2800,0,Angel,0
3/12/24,20:11:52,000,3,SM1Test,3,SM1_T2,0,2800,0,Marble,0
3/12/24,20:11:52,000,3,SM1Test,4,SM1_T3,0,2800,0,Leg,0
3/12/24,20:11:52,000,3,SM1Test,5,SM1_T4,0,2800,0,Wave,0
3/12/24,20:11:52,000,3,SM1Test,6,SM1_T5,0,2800,0,Atlas,0
3/12/24,20:11:52,000,3,SM1Test,7,SM1_T6,0,2800,0,Scarf,0
3/12/24,20:11:52,000,3,SM1Test,8,SM1_T7,0,2800,0,Stew,0
3/12/24,20:11:52,000,3,SM1Test,9,SM1_T8,0,2800,0,Goalkeeper,0
3/12/24,20:11:52,000,3,SM1Test,10,SM1_T9,0,2800,0,Cinema,0
3/12/24,20:11:52,000,3,SM1Test,11,SM1_T10,0,2800,0,Biscuit,0
3/12/24,20:11:52,000,3,SM1Test,12,SM1_T11,0,2800,0,Maple,0
3/12/24,20:11:52,000,3,SM1Test,13,SM1_T12,0,2800,0,Compass,0
3/12/24,20:11:52,000,3,SM1Test,14,SM1_T13,0,2800,0,Spaceship,0
3/12/24,20:11:52,000,3,SM1Test,15,SM1_T14,0,2800,0,Planet,0
3/12/24,20:11:52,000,3,SM1Test,16,SM1_T15,0,2800,0,Pet,0
3/12/24,20:11:52,000,3,SM1Test,17,SM1_T16,0,2800,0,Starfish,0
3/12/24,20:11:52,000,3,SM1Test,18,SM1_T17,0,2800,0,Island,0
3/12/24,20:11:52,000,3,SM1Test,19,SM1_T18,0,2800,0,Shower,0
3/12/24,20:11:52,000,3,SM1Test,20,SM1_T19,0,2800,0,Mango,0
3/12/24,20:11:52,000,3,SM1Test,21,SM1_T20,0,2800,0,Balloon,0
3/12/24,20:11:52,000,4,Pract_simon1,1,diaIC,208,2282,0,+,0
3/12/24,20:11:52,000,4,Pract_simon1,2,diaCO,200,2793,1,+,0
3/12/24,20:11:52,000,4,Pract_simon1,3,diaIC,200,1883,1,+,0
3/12/24,20:11:52,000,4,Pract_simon1,4,recIC,208,922,1,+,0
3/12/24,20:11:52,000,4,Pract_simon1,5,recCO,208,1842,1,+,0
3/12/24,20:11:52,000,4,Pract_simon1,6,diaCO,200,635,1,+,0
3/12/24,20:11:52,000,5,Test_simon1,1,diaIC,200,684,1,+,0
3/12/24,20:11:52,000,5,Test_simon1,2,diaCO,200,534,1,+,0
3/12/24,20:11:52,000,5,Test_simon1,3,recIC,208,543,1,+,0
3/12/24,20:11:52,000,5,Test_simon1,4,recIC,208,1048,1,+,0
3/12/24,20:11:52,000,5,Test_simon1,5,recCO,208,658,1,+,0
3/12/24,20:11:52,000,5,Test_simon1,6,diaIC,200,621,1,+,0
3/12/24,20:11:52,000,5,Test_simon1,7,recIC,208,474,1,+,0
3/12/24,20:11:52,000,5,Test_simon1,8,diaIC,200,1061,1,+,0
3/12/24,20:11:52,000,5,Test_simon1,9,diaIC,200,583,1,+,0
3/12/24,20:11:52,000,5,Test_simon1,10,diaIC,200,638,1,+,0
3/12/24,20:11:52,000,5,Test_simon1,11,diaCO,200,562,1,+,0
3/12/24,20:11:52,000,5,Test_simon1,12,diaIC,200,530,1,+,0
3/12/24,20:11:52,000,5,Test_simon1,13,recIC,208,883,1,+,0
3/12/24,20:11:52,000,5,Test_simon1,14,recCO,208,1532,1,+,0
3/12/24,20:11:52,000,5,Test_simon1,15,diaCO,200,627,1,+,0
3/12/24,20:11:52,000,5,Test_simon1,16,diaCO,200,488,1,+,0
3/12/24,20:11:52,000,5,Test_simon1,17,diaCO,200,426,1,+,0
3/12/24,20:11:52,000,5,Test_simon1,18,diaIC,200,623,1,+,0
3/12/24,20:11:52,000,5,Test_simon1,19,recCO,208,1020,1,+,0
3/12/24,20:11:52,000,5,Test_simon1,20,recIC,208,473,1,+,0
3/12/24,20:11:52,000,5,Test_simon1,21,diaCO,200,444,1,+,0
3/12/24,20:11:52,000,5,Test_simon1,22,recCO,200,672,0,+,0
3/12/24,20:11:52,000,5,Test_simon1,23,recCO,208,602,1,+,0
3/12/24,20:11:52,000,5,Test_simon1,24,recCO,208,368,1,+,0
3/12/24,20:11:52,000,5,Test_simon1,25,recCO,208,344,1,+,0
3/12/24,20:11:52,000,5,Test_simon1,26,recIC,208,608,1,+,0
3/12/24,20:11:52,000,5,Test_simon1,27,recCO,208,382,1,+,0
3/12/24,20:11:52,000,5,Test_simon1,28,recIC,208,541,1,+,0
3/12/24,20:11:52,000,5,Test_simon1,29,diaCO,200,421,1,+,0
3/12/24,20:11:52,000,5,Test_simon1,30,diaCO,200,419,1,+,0
3/12/24,20:11:52,000,5,Test_simon1,31,diaIC,208,360,0,+,0
3/12/24,20:11:52,000,5,Test_simon1,32,diaIC,200,496,1,+,0
3/12/24,20:11:52,000,5,Test_simon1,33,recIC,208,803,1,+,0
3/12/24,20:11:52,000,5,Test_simon1,34,recCO,208,359,1,+,0
3/12/24,20:11:52,000,5,Test_simon1,35,recIC,208,376,1,+,0
3/12/24,20:11:52,000,5,Test_simon1,36,recCO,208,391,1,+,0
3/12/24,20:11:52,000,5,Test_simon1,37,diaCO,200,557,1,+,0
3/12/24,20:11:52,000,5,Test_simon1,38,recIC,208,765,1,+,0
3/12/24,20:11:52,000,5,Test_simon1,39,diaCO,200,1140,1,+,0
3/12/24,20:11:52,000,5,Test_simon1,40,recCO,208,523,1,+,0
3/12/24,20:11:52,000,5,Test_simon1,41,diaCO,200,468,1,+,0
3/12/24,20:11:52,000,5,Test_simon1,42,diaCO,200,400,1,+,0
3/12/24,20:11:52,000,5,Test_simon1,43,recCO,208,502,1,+,0
3/12/24,20:11:52,000,5,Test_simon1,44,recIC,208,640,1,+,0
3/12/24,20:11:52,000,5,Test_simon1,45,diaCO,208,204,0,+,0
3/12/24,20:11:52,000,5,Test_simon1,46,recIC,208,594,1,+,0
3/12/24,20:11:52,000,5,Test_simon1,47,recIC,208,488,1,+,0
3/12/24,20:11:52,000,5,Test_simon1,48,recIC,208,458,1,+,0
3/12/24,20:11:52,000,5,Test_simon1,49,recIC,208,406,1,+,0
3/12/24,20:11:52,000,5,Test_simon1,50,diaIC,200,764,1,+,0
3/12/24,20:11:52,000,5,Test_simon1,51,diaCO,200,635,1,+,0
3/12/24,20:11:52,000,5,Test_simon1,52,diaIC,200,632,1,+,0
3/12/24,20:11:52,000,5,Test_simon1,53,diaIC,200,613,1,+,0
3/12/24,20:11:52,000,5,Test_simon1,54,recIC,200,401,0,+,0
3/12/24,20:11:52,000,5,Test_simon1,55,diaIC,200,656,1,+,0
3/12/24,20:11:52,000,5,Test_simon1,56,recCO,208,451,1,+,0
3/12/24,20:11:52,000,5,Test_simon1,57,diaIC,200,608,1,+,0
3/12/24,20:11:52,000,5,Test_simon1,58,diaCO,200,637,1,+,0
3/12/24,20:11:52,000,5,Test_simon1,59,diaCO,200,1657,1,+,0
3/12/24,20:11:52,000,5,Test_simon1,60,diaIC,200,538,1,+,0
3/12/24,20:11:52,000,5,Test_simon1,61,recCO,208,562,1,+,0
3/12/24,20:11:52,000,5,Test_simon1,62,recCO,208,554,1,+,0
3/12/24,20:11:52,000,5,Test_simon1,63,recCO,208,489,1,+,0
3/12/24,20:11:52,000,5,Test_simon1,64,diaIC,200,691,1,+,0
3/12/24,20:11:52,000,5,Test_simon1,65,diaIC,200,717,1,+,0
3/12/24,20:11:52,000,5,Test_simon1,66,recCO,208,566,1,+,0
3/12/24,20:11:52,000,5,Test_simon1,67,recIC,208,630,1,+,0
3/12/24,20:11:52,000,5,Test_simon1,68,diaCO,200,586,1,+,0
3/12/24,20:11:52,000,5,Test_simon1,69,recCO,208,825,1,+,0
3/12/24,20:11:52,000,5,Test_simon1,70,recIC,208,574,1,+,0
3/12/24,20:11:52,000,5,Test_simon1,71,diaCO,200,540,1,+,0
3/12/24,20:11:52,000,5,Test_simon1,72,diaIC,200,565,1,+,0
3/12/24,20:11:52,000,5,Test_simon1,73,diaIC,200,563,1,+,0
3/12/24,20:11:52,000,5,Test_simon1,74,recIC,208,667,1,+,0
3/12/24,20:11:52,000,5,Test_simon1,75,diaIC,200,854,1,+,0
3/12/24,20:11:52,000,5,Test_simon1,76,diaCO,200,513,1,+,0
3/12/24,20:11:52,000,5,Test_simon1,77,diaIC,200,699,1,+,0
3/12/24,20:11:52,000,5,Test_simon1,78,diaIC,200,453,1,+,0
3/12/24,20:11:52,000,5,Test_simon1,79,recIC,208,457,1,+,0
3/12/24,20:11:52,000,5,Test_simon1,80,recIC,208,581,1,+,0
3/12/24,20:11:52,000,6,SM1Test_Abr,1,SM1_Abr1,biscuit,17723,0,Ocean,0
3/12/24,20:11:52,000,6,SM1Test_Abr,2,SM1_Abr2,lip,6121,1,Pet,0
3/12/24,20:11:52,000,6,SM1Test_Abr,3,SM1_Abr3,kitchen,17194,0,Shower,0
3/12/24,20:11:52,000,6,SM1Test_Abr,4,SM1_Abr4,shower,10199,0,Spaceship,0
3/12/24,20:11:52,000,6,SM1Test_Abr,5,SM1_Abr5,plant,9926,0,Leg,0
3/12/24,20:11:52,000,6,SM1Test_Abr,6,SM1_Abr6,kingdom,7010,0,Goalkeeper,0
3/12/24,20:11:52,000,6,SM1Test_Abr,7,SM1_Abr7,sock,15287,0,Scarf,0
3/12/24,20:11:52,000,6,SM1Test_Abr,8,SM1_Abr8,mirror,5890,1,Atlas,0
3/12/24,20:11:52,000,6,SM1Test_Abr,9,SM1_Abr9,marble,6486,1,Tennis,0
3/12/24,20:11:52,000,6,SM1Test_Abr,10,SM1_Abr10,cinema,14795,1,Bag,0
3/12/24,20:11:52,000,6,SM1Test_Abr,11,SM1_Abr11,sea,11527,0,Field,0
3/12/24,20:11:52,000,6,SM1Test_Abr,12,SM1_Abr12,garden,17187,0,Pool,0
3/12/24,20:11:52,000,6,SM1Test_Abr,13,SM1_Abr13,tennis,13061,0,Towel,0
3/12/24,20:11:52,000,6,SM1Test_Abr,14,SM1_Abr14,i,19059,0,Island,0
3/12/24,20:11:52,000,6,SM1Test_Abr,15,SM1_Abr15,shower,6343,0,Bicycle,0
3/12/24,20:11:52,000,6,SM1Test_Abr,16,SM1_Abr16,island,6840,0,Chimney,0
3/12/24,20:11:52,000,6,SM1Test_Abr,17,SM1_Abr17,salad,20094,0,Acorn,0
3/12/24,20:11:52,000,6,SM1Test_Abr,18,SM1_Abr18,a,30933,0,Mango,0
3/12/24,20:11:52,000,6,SM1Test_Abr,19,SM1_Abr19,fitness,14294,0,Planet,0
3/12/24,20:11:52,000,6,SM1Test_Abr,20,SM1_Abr20,Ctrl+'Q',97438,1,Bird,0
3/13/24,15:40:52,002,1,SM1Practice,1,achtung,0,1700,0,Attention!,0
3/13/24,15:40:52,002,1,SM1Practice,2,SM1_P_T1,0,2800,0,Chair,0
3/13/24,15:40:52,002,1,SM1Practice,3,SM1_P_T2,0,2800,0,Lamp,0
3/13/24,15:40:52,002,1,SM1Practice,4,SM1_P_T3,0,2800,0,Phone,0
3/13/24,15:40:52,002,2,SM1Practice_Abr,1,SM1_P_Abr1,lamp,8431,1,Carpet,0
3/13/24,15:40:52,002,2,SM1Practice_Abr,2,SM1_P_Abr2,window,5109,1,Chair,0
3/13/24,15:40:52,002,2,SM1Practice_Abr,3,SM1_P_Abr3,rock,4342,1,Phone,0
3/13/24,15:40:52,002,3,SM1Test,1,achtung,0,1700,0,Attention!,0
3/13/24,15:40:52,002,3,SM1Test,2,SM1_T1,0,2800,0,Angel,0
3/13/24,15:40:52,002,3,SM1Test,3,SM1_T2,0,2800,0,Marble,0
3/13/24,15:40:52,002,3,SM1Test,4,SM1_T3,0,2800,0,Leg,0
3/13/24,15:40:52,002,3,SM1Test,5,SM1_T4,0,2800,0,Wave,0
3/13/24,15:40:52,002,3,SM1Test,6,SM1_T5,0,2800,0,Atlas,0
3/13/24,15:40:52,002,3,SM1Test,7,SM1_T6,0,2800,0,Scarf,0
3/13/24,15:40:52,002,3,SM1Test,8,SM1_T7,0,2800,0,Stew,0
3/13/24,15:40:52,002,3,SM1Test,9,SM1_T8,0,2800,0,Goalkeeper,0
3/13/24,15:40:52,002,3,SM1Test,10,SM1_T9,0,2800,0,Cinema,0
3/13/24,15:40:52,002,3,SM1Test,11,SM1_T10,0,2800,0,Biscuit,0
3/13/24,15:40:52,002,3,SM1Test,12,SM1_T11,0,2800,0,Maple,0
3/13/24,15:40:52,002,3,SM1Test,13,SM1_T12,0,2800,0,Compass,0
3/13/24,15:40:52,002,3,SM1Test,14,SM1_T13,0,2800,0,Spaceship,0
3/13/24,15:40:52,002,3,SM1Test,15,SM1_T14,0,2800,0,Planet,0
3/13/24,15:40:52,002,3,SM1Test,16,SM1_T15,0,2800,0,Pet,0
3/13/24,15:40:52,002,3,SM1Test,17,SM1_T16,0,2800,0,Starfish,0
3/13/24,15:40:52,002,3,SM1Test,18,SM1_T17,0,2800,0,Island,0
3/13/24,15:40:52,002,3,SM1Test,19,SM1_T18,0,2800,0,Shower,0
3/13/24,15:40:52,002,3,SM1Test,20,SM1_T19,0,2800,0,Mango,0
3/13/24,15:40:52,002,3,SM1Test,21,SM1_T20,0,2800,0,Balloon,0
3/13/24,15:40:52,002,4,Pract_simon1,1,recIC,208,1312,1,+,0
3/13/24,15:40:52,002,4,Pract_simon1,2,diaCO,200,608,1,+,0
3/13/24,15:40:52,002,4,Pract_simon1,3,diaIC,200,613,1,+,0
3/13/24,15:40:52,002,4,Pract_simon1,4,diaIC,200,570,1,+,0
3/13/24,15:40:52,002,4,Pract_simon1,5,recIC,208,521,1,+,0
3/13/24,15:40:52,002,4,Pract_simon1,6,diaCO,200,498,1,+,0
3/13/24,15:40:52,002,5,Test_simon1,1,diaIC,208,571,0,+,0
3/13/24,15:40:52,002,5,Test_simon1,2,diaCO,200,538,1,+,0
3/13/24,15:40:52,002,5,Test_simon1,3,recIC,208,514,1,+,0
3/13/24,15:40:52,002,5,Test_simon1,4,recIC,208,732,1,+,0
3/13/24,15:40:52,002,5,Test_simon1,5,recCO,208,628,1,+,0
3/13/24,15:40:52,002,5,Test_simon1,6,diaIC,208,424,0,+,0
3/13/24,15:40:52,002,5,Test_simon1,7,recIC,200,670,0,+,0
3/13/24,15:40:52,002,5,Test_simon1,8,diaIC,200,857,1,+,0
3/13/24,15:40:52,002,5,Test_simon1,9,diaIC,200,564,1,+,0
3/13/24,15:40:52,002,5,Test_simon1,10,diaIC,200,547,1,+,0
3/13/24,15:40:52,002,5,Test_simon1,11,diaCO,200,628,1,+,0
3/13/24,15:40:52,002,5,Test_simon1,12,diaIC,200,680,1,+,0
3/13/24,15:40:52,002,5,Test_simon1,13,recIC,208,746,1,+,0
3/13/24,15:40:52,002,5,Test_simon1,14,recCO,208,466,1,+,0
3/13/24,15:40:52,002,5,Test_simon1,15,diaCO,208,374,0,+,0
3/13/24,15:40:52,002,5,Test_simon1,16,diaCO,200,989,1,+,0
3/13/24,15:40:52,002,5,Test_simon1,17,diaCO,200,730,1,+,0
3/13/24,15:40:52,002,5,Test_simon1,18,diaIC,200,859,1,+,0
3/13/24,15:40:52,002,5,Test_simon1,19,recCO,208,446,1,+,0
3/13/24,15:40:52,002,5,Test_simon1,20,recIC,208,770,1,+,0
3/13/24,15:40:52,002,5,Test_simon1,21,diaCO,200,713,1,+,0
3/13/24,15:40:52,002,5,Test_simon1,22,recCO,200,858,0,+,0
3/13/24,15:40:52,002,5,Test_simon1,23,recCO,208,653,1,+,0
3/13/24,15:40:52,002,5,Test_simon1,24,recCO,208,393,1,+,0
3/13/24,15:40:52,002,5,Test_simon1,25,recCO,208,463,1,+,0
3/13/24,15:40:52,002,5,Test_simon1,26,recIC,208,587,1,+,0
3/13/24,15:40:52,002,5,Test_simon1,27,recCO,208,825,1,+,0
3/13/24,15:40:52,002,5,Test_simon1,28,recIC,208,773,1,+,0
3/13/24,15:40:52,002,5,Test_simon1,29,diaCO,200,796,1,+,0
3/13/24,15:40:52,002,5,Test_simon1,30,diaCO,200,521,1,+,0
3/13/24,15:40:52,002,5,Test_simon1,31,diaIC,200,826,1,+,0
3/13/24,15:40:52,002,5,Test_simon1,32,diaIC,200,814,1,+,0
3/13/24,15:40:52,002,5,Test_simon1,33,recIC,208,899,1,+,0
3/13/24,15:40:52,002,5,Test_simon1,34,recCO,208,716,1,+,0
3/13/24,15:40:52,002,5,Test_simon1,35,recIC,208,750,1,+,0
3/13/24,15:40:52,002,5,Test_simon1,36,recCO,208,750,1,+,0
3/13/24,15:40:52,002,5,Test_simon1,37,diaCO,200,893,1,+,0
3/13/24,15:40:52,002,5,Test_simon1,38,recIC,208,814,1,+,0
3/13/24,15:40:52,002,5,Test_simon1,39,diaCO,200,947,1,+,0
3/13/24,15:40:52,002,5,Test_simon1,40,recCO,208,754,1,+,0
3/13/24,15:40:52,002,5,Test_simon1,41,diaCO,200,786,1,+,0
3/13/24,15:40:52,002,5,Test_simon1,42,diaCO,200,1024,1,+,0
3/13/24,15:40:52,002,5,Test_simon1,43,recCO,208,564,1,+,0
3/13/24,15:40:52,002,5,Test_simon1,44,recIC,200,691,0,+,0
3/13/24,15:40:52,002,5,Test_simon1,45,diaCO,200,749,1,+,0
3/13/24,15:40:52,002,5,Test_simon1,46,recIC,200,748,0,+,0
3/13/24,15:40:52,002,5,Test_simon1,47,recIC,208,756,1,+,0
3/13/24,15:40:52,002,5,Test_simon1,48,recIC,208,907,1,+,0
3/13/24,15:40:52,002,5,Test_simon1,49,recIC,208,508,1,+,0
3/13/24,15:40:52,002,5,Test_simon1,50,diaIC,200,1326,1,+,0
3/13/24,15:40:52,002,5,Test_simon1,51,diaCO,200,821,1,+,0
3/13/24,15:40:52,002,5,Test_simon1,52,diaIC,200,1057,1,+,0
3/13/24,15:40:52,002,5,Test_simon1,53,diaIC,200,676,1,+,0
3/13/24,15:40:52,002,5,Test_simon1,54,recIC,208,781,1,+,0
3/13/24,15:40:52,002,5,Test_simon1,55,diaIC,200,604,1,+,0
3/13/24,15:40:52,002,5,Test_simon1,56,recCO,208,713,1,+,0
3/13/24,15:40:52,002,5,Test_simon1,57,diaIC,200,891,1,+,0
3/13/24,15:40:52,002,5,Test_simon1,58,diaCO,200,580,1,+,0
3/13/24,15:40:52,002,5,Test_simon1,59,diaCO,200,747,1,+,0
3/13/24,15:40:52,002,5,Test_simon1,60,diaIC,200,1187,1,+,0
3/13/24,15:40:52,002,5,Test_simon1,61,recCO,208,784,1,+,0
3/13/24,15:40:52,002,5,Test_simon1,62,recCO,208,670,1,+,0
3/13/24,15:40:52,002,5,Test_simon1,63,recCO,208,633,1,+,0
3/13/24,15:40:52,002,5,Test_simon1,64,diaIC,200,901,1,+,0
3/13/24,15:40:52,002,5,Test_simon1,65,diaIC,200,903,1,+,0
3/13/24,15:40:52,002,5,Test_simon1,66,recCO,208,648,1,+,0
3/13/24,15:40:52,002,5,Test_simon1,67,recIC,208,1316,1,+,0
3/13/24,15:40:52,002,5,Test_simon1,68,diaCO,200,900,1,+,0
3/13/24,15:40:52,002,5,Test_simon1,69,recCO,208,670,1,+,0
3/13/24,15:40:52,002,5,Test_simon1,70,recIC,208,720,1,+,0
3/13/24,15:40:52,002,5,Test_simon1,71,diaCO,200,601,1,+,0
3/13/24,15:40:52,002,5,Test_simon1,72,diaIC,208,575,0,+,0
3/13/24,15:40:52,002,5,Test_simon1,73,diaIC,200,902,1,+,0
3/13/24,15:40:52,002,5,Test_simon1,74,recIC,208,535,1,+,0
3/13/24,15:40:52,002,5,Test_simon1,75,diaIC,200,736,1,+,0
3/13/24,15:40:52,002,5,Test_simon1,76,diaCO,200,305,1,+,0
3/13/24,15:40:52,002,5,Test_simon1,77,diaIC,200,611,1,+,0
3/13/24,15:40:52,002,5,Test_simon1,78,diaIC,208,343,0,+,0
3/13/24,15:40:52,002,5,Test_simon1,79,recIC,200,1192,0,+,0
3/13/24,15:40:52,002,5,Test_simon1,80,recIC,208,637,1,+,0
3/13/24,15:40:52,002,6,SM1Test_Abr,1,SM1_Abr1,?,18052,0,Ocean,0
3/13/24,15:40:52,002,6,SM1Test_Abr,2,SM1_Abr2,ocean,11861,0,Pet,0
3/13/24,15:40:52,002,6,SM1Test_Abr,3,SM1_Abr3,Home,16255,0,Shower,0
3/13/24,15:40:52,002,6,SM1Test_Abr,4,SM1_Abr4,pale,6856,0,Spaceship,0
3/13/24,15:40:52,002,6,SM1Test_Abr,5,SM1_Abr5,home,3646,0,Leg,0
3/13/24,15:40:52,002,6,SM1Test_Abr,6,SM1_Abr6,peddle,4426,0,Goalkeeper,0
3/13/24,15:40:52,002,6,SM1Test_Abr,7,SM1_Abr7,pig,9434,0,Scarf,0
3/13/24,15:40:52,002,6,SM1Test_Abr,8,SM1_Abr8,goalkeeper,12485,0,Atlas,0
3/13/24,15:40:52,002,6,SM1Test_Abr,9,SM1_Abr9,ball,3701,0,Tennis,0
3/13/24,15:40:52,002,6,SM1Test_Abr,10,SM1_Abr10,hand,5687,0,Bag,0
3/13/24,15:40:52,002,6,SM1Test_Abr,11,SM1_Abr11,goal,3158,0,Field,0
3/13/24,15:40:52,002,6,SM1Test_Abr,12,SM1_Abr12,water,3070,0,Pool,0
3/13/24,15:40:52,002,6,SM1Test_Abr,13,SM1_Abr13,pool,4889,0,Towel,0
3/13/24,15:40:52,002,6,SM1Test_Abr,14,SM1_Abr14,sand,3482,0,Island,0
3/13/24,15:40:52,002,6,SM1Test_Abr,15,SM1_Abr15,peddle,4344,0,Bicycle,0
3/13/24,15:40:52,002,6,SM1Test_Abr,16,SM1_Abr16,coal,7824,0,Chimney,0
3/13/24,15:40:52,002,6,SM1Test_Abr,17,SM1_Abr17,nut,3123,0,Acorn,0
3/13/24,15:40:52,002,6,SM1Test_Abr,18,SM1_Abr18,fruit,4307,0,Mango,0
3/13/24,15:40:52,002,6,SM1Test_Abr,19,SM1_Abr19,stars,6253,0,Planet,0
3/13/24,15:40:52,002,6,SM1Test_Abr,20,SM1_Abr20,wings,4020,0,Bird,0
3/14/24,16:16:15,001,1,SM1Practice,1,achtung,0,1700,0,Attention!,0
3/14/24,16:16:15,001,1,SM1Practice,2,SM1_P_T1,0,2800,0,Chair,0
3/14/24,16:16:15,001,1,SM1Practice,3,SM1_P_T2,0,2800,0,Lamp,0
3/14/24,16:16:15,001,1,SM1Practice,4,SM1_P_T3,0,2800,0,Phone,0
3/14/24,16:16:15,001,2,SM1Practice_Abr,1,SM1_P_Abr1,lamp,6751,1,Carpet,0
3/14/24,16:16:15,001,2,SM1Practice_Abr,2,SM1_P_Abr2,rug,4212,0,Chair,0
3/14/24,16:16:15,001,2,SM1Practice_Abr,3,SM1_P_Abr3,rock,2709,1,Phone,0
3/14/24,16:16:15,001,3,SM1Test,1,achtung,0,1700,0,Attention!,0
3/14/24,16:16:15,001,3,SM1Test,2,SM1_T1,0,2800,0,Angel,0
3/14/24,16:16:15,001,3,SM1Test,3,SM1_T2,0,2800,0,Marble,0
3/14/24,16:16:15,001,3,SM1Test,4,SM1_T3,0,2800,0,Leg,0
3/14/24,16:16:15,001,3,SM1Test,5,SM1_T4,0,2800,0,Wave,0
3/14/24,16:16:15,001,3,SM1Test,6,SM1_T5,0,2800,0,Atlas,0
3/14/24,16:16:15,001,3,SM1Test,7,SM1_T6,0,2800,0,Scarf,0
3/14/24,16:16:15,001,3,SM1Test,8,SM1_T7,0,2800,0,Stew,0
3/14/24,16:16:15,001,3,SM1Test,9,SM1_T8,0,2800,0,Goalkeeper,0
3/14/24,16:16:15,001,3,SM1Test,10,SM1_T9,0,2800,0,Cinema,0
3/14/24,16:16:15,001,3,SM1Test,11,SM1_T10,0,2800,0,Biscuit,0
3/14/24,16:16:15,001,3,SM1Test,12,SM1_T11,0,2800,0,Maple,0
3/14/24,16:16:15,001,3,SM1Test,13,SM1_T12,0,2800,0,Compass,0
3/14/24,16:16:15,001,3,SM1Test,14,SM1_T13,0,2800,0,Spaceship,0
3/14/24,16:16:15,001,3,SM1Test,15,SM1_T14,0,2800,0,Planet,0
3/14/24,16:16:15,001,3,SM1Test,16,SM1_T15,0,2800,0,Pet,0
3/14/24,16:16:15,001,3,SM1Test,17,SM1_T16,0,2800,0,Starfish,0
3/14/24,16:16:15,001,3,SM1Test,18,SM1_T17,0,2800,0,Island,0
3/14/24,16:16:15,001,3,SM1Test,19,SM1_T18,0,2800,0,Shower,0
3/14/24,16:16:15,001,3,SM1Test,20,SM1_T19,0,2800,0,Mango,0
3/14/24,16:16:15,001,3,SM1Test,21,SM1_T20,0,2800,0,Balloon,0
3/14/24,16:16:15,001,4,Pract_simon1,1,diaIC,200,2541,1,+,0
3/14/24,16:16:15,001,4,Pract_simon1,2,diaIC,200,641,1,+,0
3/14/24,16:16:15,001,4,Pract_simon1,3,recIC,208,509,1,+,0
3/14/24,16:16:15,001,4,Pract_simon1,4,recCO,208,582,1,+,0
3/14/24,16:16:15,001,4,Pract_simon1,5,diaCO,200,621,1,+,0
3/14/24,16:16:15,001,4,Pract_simon1,6,recIC,208,746,1,+,0
3/14/24,16:16:15,001,5,Test_simon1,1,diaIC,200,816,1,+,0
3/14/24,16:16:15,001,5,Test_simon1,2,diaCO,200,597,1,+,0
3/14/24,16:16:15,001,5,Test_simon1,3,recIC,208,1235,1,+,0
3/14/24,16:16:15,001,5,Test_simon1,4,recIC,208,615,1,+,0
3/14/24,16:16:15,001,5,Test_simon1,5,recCO,208,612,1,+,0
3/14/24,16:16:15,001,5,Test_simon1,6,diaIC,200,690,1,+,0
3/14/24,16:16:15,001,5,Test_simon1,7,recIC,208,740,1,+,0
3/14/24,16:16:15,001,5,Test_simon1,8,diaIC,200,444,1,+,0
3/14/24,16:16:15,001,5,Test_simon1,9,diaIC,200,1063,1,+,0
3/14/24,16:16:15,001,5,Test_simon1,10,diaIC,200,986,1,+,0
3/14/24,16:16:15,001,5,Test_simon1,11,diaCO,200,768,1,+,0
3/14/24,16:16:15,001,5,Test_simon1,12,diaIC,200,639,1,+,0
3/14/24,16:16:15,001,5,Test_simon1,13,recIC,208,675,1,+,0
3/14/24,16:16:15,001,5,Test_simon1,14,recCO,208,766,1,+,0
3/14/24,16:16:15,001,5,Test_simon1,15,diaCO,200,773,1,+,0
3/14/24,16:16:15,001,5,Test_simon1,16,diaCO,200,667,1,+,0
3/14/24,16:16:15,001,5,Test_simon1,17,diaCO,200,686,1,+,0
3/14/24,16:16:15,001,5,Test_simon1,18,diaIC,200,568,1,+,0
3/14/24,16:16:15,001,5,Test_simon1,19,recCO,208,672,1,+,0
3/14/24,16:16:15,001,5,Test_simon1,20,recIC,208,698,1,+,0
3/14/24,16:16:15,001,5,Test_simon1,21,diaCO,200,604,1,+,0
3/14/24,16:16:15,001,5,Test_simon1,22,recCO,208,1162,1,+,0
3/14/24,16:16:15,001,5,Test_simon1,23,recCO,208,664,1,+,0
3/14/24,16:16:15,001,5,Test_simon1,24,recCO,208,563,1,+,0
3/14/24,16:16:15,001,5,Test_simon1,25,recCO,208,627,1,+,0
3/14/24,16:16:15,001,5,Test_simon1,26,recIC,208,599,1,+,0
3/14/24,16:16:15,001,5,Test_simon1,27,recCO,208,621,1,+,0
3/14/24,16:16:15,001,5,Test_simon1,28,recIC,208,570,1,+,0
3/14/24,16:16:15,001,5,Test_simon1,29,diaCO,200,688,1,+,0
3/14/24,16:16:15,001,5,Test_simon1,30,diaCO,200,658,1,+,0
3/14/24,16:16:15,001,5,Test_simon1,31,diaIC,200,710,1,+,0
3/14/24,16:16:15,001,5,Test_simon1,32,diaIC,200,575,1,+,0
3/14/24,16:16:15,001,5,Test_simon1,33,recIC,208,654,1,+,0
3/14/24,16:16:15,001,5,Test_simon1,34,recCO,208,632,1,+,0
3/14/24,16:16:15,001,5,Test_simon1,35,recIC,208,509,1,+,0
3/14/24,16:16:15,001,5,Test_simon1,36,recCO,208,735,1,+,0
3/14/24,16:16:15,001,5,Test_simon1,37,diaCO,200,847,1,+,0
3/14/24,16:16:15,001,5,Test_simon1,38,recIC,208,699,1,+,0
3/14/24,16:16:15,001,5,Test_simon1,39,diaCO,200,597,1,+,0
3/14/24,16:16:15,001,5,Test_simon1,40,recCO,208,579,1,+,0
3/14/24,16:16:15,001,5,Test_simon1,41,diaCO,200,618,1,+,0
3/14/24,16:16:15,001,5,Test_simon1,42,diaCO,200,551,1,+,0
3/14/24,16:16:15,001,5,Test_simon1,43,recCO,208,711,1,+,0
3/14/24,16:16:15,001,5,Test_simon1,44,recIC,208,1424,1,+,0
3/14/24,16:16:15,001,5,Test_simon1,45,diaCO,200,643,1,+,0
3/14/24,16:16:15,001,5,Test_simon1,46,recIC,208,703,1,+,0
3/14/24,16:16:15,001,5,Test_simon1,47,recIC,208,705,1,+,0
3/14/24,16:16:15,001,5,Test_simon1,48,recIC,208,618,1,+,0
3/14/24,16:16:15,001,5,Test_simon1,49,recIC,208,648,1,+,0
3/14/24,16:16:15,001,5,Test_simon1,50,diaIC,200,764,1,+,0
3/14/24,16:16:15,001,5,Test_simon1,51,diaCO,200,770,1,+,0
3/14/24,16:16:15,001,5,Test_simon1,52,diaIC,200,881,1,+,0
3/14/24,16:16:15,001,5,Test_simon1,53,diaIC,200,715,1,+,0
3/14/24,16:16:15,001,5,Test_simon1,54,recIC,208,572,1,+,0
3/14/24,16:16:15,001,5,Test_simon1,55,diaIC,200,747,1,+,0
3/14/24,16:16:15,001,5,Test_simon1,56,recCO,208,635,1,+,0
3/14/24,16:16:15,001,5,Test_simon1,57,diaIC,200,664,1,+,0
3/14/24,16:16:15,001,5,Test_simon1,58,diaCO,200,699,1,+,0
3/14/24,16:16:15,001,5,Test_simon1,59,diaCO,200,556,1,+,0
3/14/24,16:16:15,001,5,Test_simon1,60,diaIC,200,508,1,+,0
3/14/24,16:16:15,001,5,Test_simon1,61,recCO,208,845,1,+,0
3/14/24,16:16:15,001,5,Test_simon1,62,recCO,208,537,1,+,0
3/14/24,16:16:15,001,5,Test_simon1,63,recCO,208,553,1,+,0
3/14/24,16:16:15,001,5,Test_simon1,64,diaIC,200,601,1,+,0
3/14/24,16:16:15,001,5,Test_simon1,65,diaIC,200,687,1,+,0
3/14/24,16:16:15,001,5,Test_simon1,66,recCO,208,594,1,+,0
3/14/24,16:16:15,001,5,Test_simon1,67,recIC,208,688,1,+,0
3/14/24,16:16:15,001,5,Test_simon1,68,diaCO,200,569,1,+,0
3/14/24,16:16:15,001,5,Test_simon1,69,recCO,208,608,1,+,0
3/14/24,16:16:15,001,5,Test_simon1,70,recIC,208,822,1,+,0
3/14/24,16:16:15,001,5,Test_simon1,71,diaCO,200,746,1,+,0
3/14/24,16:16:15,001,5,Test_simon1,72,diaIC,200,770,1,+,0
3/14/24,16:16:15,001,5,Test_simon1,73,diaIC,200,649,1,+,0
3/14/24,16:16:15,001,5,Test_simon1,74,recIC,208,957,1,+,0
3/14/24,16:16:15,001,5,Test_simon1,75,diaIC,200,820,1,+,0
3/14/24,16:16:15,001,5,Test_simon1,76,diaCO,200,592,1,+,0
3/14/24,16:16:15,001,5,Test_simon1,77,diaIC,200,686,1,+,0
3/14/24,16:16:15,001,5,Test_simon1,78,diaIC,200,649,1,+,0
3/14/24,16:16:15,001,5,Test_simon1,79,recIC,208,725,1,+,0
3/14/24,16:16:15,001,5,Test_simon1,80,recIC,208,1037,1,+,0
3/14/24,16:16:15,001,6,SM1Test_Abr,1,SM1_Abr1,buttermilk,11898,0,Ocean,0
3/14/24,16:16:15,001,6,SM1Test_Abr,2,SM1_Abr2,lamp,7422,0,Pet,0
3/14/24,16:16:15,001,6,SM1Test_Abr,3,SM1_Abr3,bean,9931,0,Shower,0
3/14/24,16:16:15,001,6,SM1Test_Abr,4,SM1_Abr4,lamp,21742,0,Spaceship,0
3/14/24,16:16:15,001,6,SM1Test_Abr,5,SM1_Abr5,rock,22143,0,Leg,0
3/14/24,16:16:15,001,6,SM1Test_Abr,6,SM1_Abr6,ball,3867,0,Goalkeeper,0
3/14/24,16:16:15,001,6,SM1Test_Abr,7,SM1_Abr7,shamrock,8901,0,Scarf,0
3/14/24,16:16:15,001,6,SM1Test_Abr,8,SM1_Abr8,compass,3981,0,Atlas,0
3/14/24,16:16:15,001,6,SM1Test_Abr,9,SM1_Abr9,ball,7202,0,Tennis,0
3/14/24,16:16:15,001,6,SM1Test_Abr,10,SM1_Abr10,bean,9672,0,Bag,0
3/14/24,16:16:15,001,6,SM1Test_Abr,11,SM1_Abr11,goal,19951,0,Field,0
3/14/24,16:16:15,001,6,SM1Test_Abr,12,SM1_Abr12,lamp,13757,0,Pool,0
3/14/24,16:16:15,001,6,SM1Test_Abr,13,SM1_Abr13,rock,5353,0,Towel,0
3/14/24,16:16:15,001,6,SM1Test_Abr,14,SM1_Abr14,towel,5964,0,Island,0
3/14/24,16:16:15,001,6,SM1Test_Abr,15,SM1_Abr15,cycle,38630,0,Bicycle,0
3/14/24,16:16:15,001,6,SM1Test_Abr,16,SM1_Abr16,rock,3701,0,Chimney,0
3/14/24,16:16:15,001,6,SM1Test_Abr,17,SM1_Abr17,shampoo,10246,0,Acorn,0
3/14/24,16:16:15,001,6,SM1Test_Abr,18,SM1_Abr18,earring,3748,1,Mango,0
3/14/24,16:16:15,001,6,SM1Test_Abr,19,SM1_Abr19,time,8901,0,Planet,0
3/14/24,16:16:15,001,6,SM1Test_Abr,20,SM1_Abr20,fly,20843,0,Bird,0
3/14/24,16:58:36,003,1,SM1Practice,1,achtung,0,1700,0,Attention!,0
3/14/24,16:58:36,003,1,SM1Practice,2,SM1_P_T1,0,2800,0,Chair,0
3/14/24,16:58:36,003,1,SM1Practice,3,SM1_P_T2,0,2800,0,Lamp,0
3/14/24,16:58:36,003,1,SM1Practice,4,SM1_P_T3,0,2800,0,Phone,0
3/14/24,16:58:36,003,2,SM1Practice_Abr,1,SM1_P_Abr1,lamp,11047,1,Carpet,0
3/14/24,16:58:36,003,2,SM1Practice_Abr,2,SM1_P_Abr2,winow,6881,0,Chair,0
3/14/24,16:58:36,003,2,SM1Practice_Abr,3,SM1_P_Abr3,rock,6008,1,Phone,0
3/14/24,16:58:36,003,3,SM1Test,1,achtung,0,1700,0,Attention!,0
3/14/24,16:58:36,003,3,SM1Test,2,SM1_T1,0,2800,0,Angel,0
3/14/24,16:58:36,003,3,SM1Test,3,SM1_T2,0,2800,0,Marble,0
3/14/24,16:58:36,003,3,SM1Test,4,SM1_T3,0,2800,0,Leg,0
3/14/24,16:58:36,003,3,SM1Test,5,SM1_T4,0,2800,0,Wave,0
3/14/24,16:58:36,003,3,SM1Test,6,SM1_T5,0,2800,0,Atlas,0
3/14/24,16:58:36,003,3,SM1Test,7,SM1_T6,0,2800,0,Scarf,0
3/14/24,16:58:36,003,3,SM1Test,8,SM1_T7,0,2800,0,Stew,0
3/14/24,16:58:36,003,3,SM1Test,9,SM1_T8,0,2800,0,Goalkeeper,0
3/14/24,16:58:36,003,3,SM1Test,10,SM1_T9,0,2800,0,Cinema,0
3/14/24,16:58:36,003,3,SM1Test,11,SM1_T10,0,2800,0,Biscuit,0
3/14/24,16:58:36,003,3,SM1Test,12,SM1_T11,0,2800,0,Maple,0
3/14/24,16:58:36,003,3,SM1Test,13,SM1_T12,0,2800,0,Compass,0
3/14/24,16:58:36,003,3,SM1Test,14,SM1_T13,0,2800,0,Spaceship,0
3/14/24,16:58:36,003,3,SM1Test,15,SM1_T14,0,2800,0,Planet,0
3/14/24,16:58:36,003,3,SM1Test,16,SM1_T15,0,2800,0,Pet,0
3/14/24,16:58:36,003,3,SM1Test,17,SM1_T16,0,2800,0,Starfish,0
3/14/24,16:58:36,003,3,SM1Test,18,SM1_T17,0,2800,0,Island,0
3/14/24,16:58:36,003,3,SM1Test,19,SM1_T18,0,2800,0,Shower,0
3/14/24,16:58:36,003,3,SM1Test,20,SM1_T19,0,2800,0,Mango,0
3/14/24,16:58:36,003,3,SM1Test,21,SM1_T20,0,2800,0,Balloon,0
3/14/24,16:58:36,003,4,Pract_simon1,1,recCO,208,1114,1,+,0
3/14/24,16:58:36,003,4,Pract_simon1,2,diaCO,208,826,0,+,0
3/14/24,16:58:36,003,4,Pract_simon1,3,diaCO,200,478,1,+,0
3/14/24,16:58:36,003,4,Pract_simon1,4,diaIC,200,705,1,+,0
3/14/24,16:58:36,003,4,Pract_simon1,5,recIC,208,483,1,+,0
3/14/24,16:58:36,003,4,Pract_simon1,6,recCO,208,614,1,+,0
3/14/24,16:58:36,003,5,Test_simon1,1,diaIC,200,1173,1,+,0
3/14/24,16:58:36,003,5,Test_simon1,2,diaCO,200,483,1,+,0
3/14/24,16:58:36,003,5,Test_simon1,3,recIC,208,454,1,+,0
3/14/24,16:58:36,003,5,Test_simon1,4,recIC,208,474,1,+,0
3/14/24,16:58:36,003,5,Test_simon1,5,recCO,208,404,1,+,0
3/14/24,16:58:36,003,5,Test_simon1,6,diaIC,200,378,1,+,0
3/14/24,16:58:36,003,5,Test_simon1,7,recIC,208,353,1,+,0
3/14/24,16:58:36,003,5,Test_simon1,8,diaIC,200,545,1,+,0
3/14/24,16:58:36,003,5,Test_simon1,9,diaIC,200,449,1,+,0
3/14/24,16:58:36,003,5,Test_simon1,10,diaIC,200,406,1,+,0
3/14/24,16:58:36,003,5,Test_simon1,11,diaCO,200,420,1,+,0
3/14/24,16:58:36,003,5,Test_simon1,12,diaIC,200,450,1,+,0
3/14/24,16:58:36,003,5,Test_simon1,13,recIC,208,405,1,+,0
3/14/24,16:58:36,003,5,Test_simon1,14,recCO,208,547,1,+,0
3/14/24,16:58:36,003,5,Test_simon1,15,diaCO,200,419,1,+,0
3/14/24,16:58:36,003,5,Test_simon1,16,diaCO,200,385,1,+,0
3/14/24,16:58:36,003,5,Test_simon1,17,diaCO,200,448,1,+,0
3/14/24,16:58:36,003,5,Test_simon1,18,diaIC,200,477,1,+,0
3/14/24,16:58:36,003,5,Test_simon1,19,recCO,208,384,1,+,0
3/14/24,16:58:36,003,5,Test_simon1,20,recIC,208,823,1,+,0
3/14/24,16:58:36,003,5,Test_simon1,21,diaCO,200,347,1,+,0
3/14/24,16:58:36,003,5,Test_simon1,22,recCO,208,467,1,+,0
3/14/24,16:58:36,003,5,Test_simon1,23,recCO,208,423,1,+,0
3/14/24,16:58:36,003,5,Test_simon1,24,recCO,208,308,1,+,0
3/14/24,16:58:36,003,5,Test_simon1,25,recCO,208,374,1,+,0
3/14/24,16:58:36,003,5,Test_simon1,26,recIC,200,438,0,+,0
3/14/24,16:58:36,003,5,Test_simon1,27,recCO,208,474,1,+,0
3/14/24,16:58:36,003,5,Test_simon1,28,recIC,208,405,1,+,0
3/14/24,16:58:36,003,5,Test_simon1,29,diaCO,200,386,1,+,0
3/14/24,16:58:36,003,5,Test_simon1,30,diaCO,200,409,1,+,0
3/14/24,16:58:36,003,5,Test_simon1,31,diaIC,200,879,1,+,0
3/14/24,16:58:36,003,5,Test_simon1,32,diaIC,200,785,1,+,0
3/14/24,16:58:36,003,5,Test_simon1,33,recIC,208,495,1,+,0
3/14/24,16:58:36,003,5,Test_simon1,34,recCO,208,578,1,+,0
3/14/24,16:58:36,003,5,Test_simon1,35,recIC,200,593,0,+,0
3/14/24,16:58:36,003,5,Test_simon1,36,recCO,208,903,1,+,0
3/14/24,16:58:36,003,5,Test_simon1,37,diaCO,200,359,1,+,0
3/14/24,16:58:36,003,5,Test_simon1,38,recIC,208,511,1,+,0
3/14/24,16:58:36,003,5,Test_simon1,39,diaCO,200,361,1,+,0
3/14/24,16:58:36,003,5,Test_simon1,40,recCO,208,313,1,+,0
3/14/24,16:58:36,003,5,Test_simon1,41,diaCO,200,347,1,+,0
3/14/24,16:58:36,003,5,Test_simon1,42,diaCO,200,292,1,+,0
3/14/24,16:58:36,003,5,Test_simon1,43,recCO,208,335,1,+,0
3/14/24,16:58:36,003,5,Test_simon1,44,recIC,208,511,1,+,0
3/14/24,16:58:36,003,5,Test_simon1,45,diaCO,200,345,1,+,0
3/14/24,16:58:36,003,5,Test_simon1,46,recIC,208,530,1,+,0
3/14/24,16:58:36,003,5,Test_simon1,47,recIC,208,506,1,+,0
3/14/24,16:58:36,003,5,Test_simon1,48,recIC,208,364,1,+,0
3/14/24,16:58:36,003,5,Test_simon1,49,recIC,208,348,1,+,0
3/14/24,16:58:36,003,5,Test_simon1,50,diaIC,200,333,1,+,0
3/14/24,16:58:36,003,5,Test_simon1,51,diaCO,200,350,1,+,0
3/14/24,16:58:36,003,5,Test_simon1,52,diaIC,200,431,1,+,0
3/14/24,16:58:36,003,5,Test_simon1,53,diaIC,200,395,1,+,0
3/14/24,16:58:36,003,5,Test_simon1,54,recIC,208,370,1,+,0
3/14/24,16:58:36,003,5,Test_simon1,55,diaIC,200,481,1,+,0
3/14/24,16:58:36,003,5,Test_simon1,56,recCO,208,428,1,+,0
3/14/24,16:58:36,003,5,Test_simon1,57,diaIC,200,417,1,+,0
3/14/24,16:58:36,003,5,Test_simon1,58,diaCO,200,359,1,+,0
3/14/24,16:58:36,003,5,Test_simon1,59,diaCO,200,399,1,+,0
3/14/24,16:58:36,003,5,Test_simon1,60,diaIC,200,358,1,+,0
3/14/24,16:58:36,003,5,Test_simon1,61,recCO,208,373,1,+,0
3/14/24,16:58:36,003,5,Test_simon1,62,recCO,208,308,1,+,0
3/14/24,16:58:36,003,5,Test_simon1,63,recCO,208,326,1,+,0
3/14/24,16:58:36,003,5,Test_simon1,64,diaIC,200,440,1,+,0
3/14/24,16:58:36,003,5,Test_simon1,65,diaIC,200,356,1,+,0
3/14/24,16:58:36,003,5,Test_simon1,66,recCO,208,420,1,+,0
3/14/24,16:58:36,003,5,Test_simon1,67,recIC,208,537,1,+,0
3/14/24,16:58:36,003,5,Test_simon1,68,diaCO,200,394,1,+,0
3/14/24,16:58:36,003,5,Test_simon1,69,recCO,208,527,1,+,0
3/14/24,16:58:36,003,5,Test_simon1,70,recIC,208,656,1,+,0
3/14/24,16:58:36,003,5,Test_simon1,71,diaCO,200,340,1,+,0
3/14/24,16:58:36,003,5,Test_simon1,72,diaIC,200,876,1,+,0
3/14/24,16:58:36,003,5,Test_simon1,73,diaIC,200,703,1,+,0
3/14/24,16:58:36,003,5,Test_simon1,74,recIC,208,817,1,+,0
3/14/24,16:58:36,003,5,Test_simon1,75,diaIC,200,438,1,+,0
3/14/24,16:58:36,003,5,Test_simon1,76,diaCO,200,482,1,+,0
3/14/24,16:58:36,003,5,Test_simon1,77,diaIC,200,396,1,+,0
3/14/24,16:58:36,003,5,Test_simon1,78,diaIC,200,379,1,+,0
3/14/24,16:58:36,003,5,Test_simon1,79,recIC,208,490,1,+,0
3/14/24,16:58:36,003,5,Test_simon1,80,recIC,200,853,0,+,0
3/14/24,16:58:36,003,6,SM1Test_Abr,1,SM1_Abr1,bird,12984,0,Ocean,0
3/14/24,16:58:36,003,6,SM1Test_Abr,2,SM1_Abr2,rock,5700,0,Pet,0
3/14/24,16:58:36,003,6,SM1Test_Abr,3,SM1_Abr3,angel,13833,0,Shower,0
3/14/24,16:58:36,003,6,SM1Test_Abr,4,SM1_Abr4,globe,6121,0,Spaceship,0
3/14/24,16:58:36,003,6,SM1Test_Abr,5,SM1_Abr5,arm,18251,0,Leg,0
3/14/24,16:58:36,003,6,SM1Test_Abr,6,SM1_Abr6,bicycle,9881,0,Goalkeeper,0
3/14/24,16:58:36,003,6,SM1Test_Abr,7,SM1_Abr7,dress,11894,0,Scarf,0
3/14/24,16:58:36,003,6,SM1Test_Abr,8,SM1_Abr8,globe,12359,0,Atlas,0
3/14/24,16:58:36,003,6,SM1Test_Abr,9,SM1_Abr9,sport,4581,0,Tennis,0
3/14/24,16:58:36,003,6,SM1Test_Abr,10,SM1_Abr10,brown,5245,0,Bag,0
3/14/24,16:58:36,003,6,SM1Test_Abr,11,SM1_Abr11,sport,5018,0,Field,0
3/14/24,16:58:36,003,6,SM1Test_Abr,12,SM1_Abr12,dog,6525,0,Pool,0
3/14/24,16:58:36,003,6,SM1Test_Abr,13,SM1_Abr13,bird,11598,0,Towel,0
3/14/24,16:58:36,003,6,SM1Test_Abr,14,SM1_Abr14,sun,3668,0,Island,0
3/14/24,16:58:36,003,6,SM1Test_Abr,15,SM1_Abr15,park,4400,0,Bicycle,0
3/14/24,16:58:36,003,6,SM1Test_Abr,16,SM1_Abr16,home,6427,0,Chimney,0
3/14/24,16:58:36,003,6,SM1Test_Abr,17,SM1_Abr17,tree,2362,0,Acorn,0
3/14/24,16:58:36,003,6,SM1Test_Abr,18,SM1_Abr18,fruit,7428,0,Mango,0
3/14/24,16:58:36,003,6,SM1Test_Abr,19,SM1_Abr19,globe,3383,0,Planet,0
3/14/24,16:58:36,003,6,SM1Test_Abr,20,SM1_Abr20,angel,4927,1,Bird,0
3/14/24,17:57:50,007,1,SM1Practice,1,achtung,0,1700,0,Attention!,0
3/14/24,17:57:50,007,1,SM1Practice,2,SM1_P_T1,0,2800,0,Chair,0
3/14/24,17:57:50,007,1,SM1Practice,3,SM1_P_T2,0,2800,0,Lamp,0
3/14/24,17:57:50,007,1,SM1Practice,4,SM1_P_T3,0,2800,0,Phone,0
3/14/24,17:57:50,007,2,SM1Practice_Abr,1,SM1_P_Abr1,lamp,15153,1,Carpet,0
3/14/24,17:57:50,007,2,SM1Practice_Abr,2,SM1_P_Abr2,window,4271,1,Chair,0
3/14/24,17:57:50,007,2,SM1Practice_Abr,3,SM1_P_Abr3,rock,3717,1,Phone,0
3/14/24,17:57:50,007,3,SM1Test,1,achtung,0,1700,0,Attention!,0
3/14/24,17:57:50,007,3,SM1Test,2,SM1_T1,0,2800,0,Angel,0
3/14/24,17:57:50,007,3,SM1Test,3,SM1_T2,0,2800,0,Marble,0
3/14/24,17:57:50,007,3,SM1Test,4,SM1_T3,0,2800,0,Leg,0
3/14/24,17:57:50,007,3,SM1Test,5,SM1_T4,0,2800,0,Wave,0
3/14/24,17:57:50,007,3,SM1Test,6,SM1_T5,0,2800,0,Atlas,0
3/14/24,17:57:50,007,3,SM1Test,7,SM1_T6,0,2800,0,Scarf,0
3/14/24,17:57:50,007,3,SM1Test,8,SM1_T7,0,2800,0,Stew,0
3/14/24,17:57:50,007,3,SM1Test,9,SM1_T8,0,2800,0,Goalkeeper,0
3/14/24,17:57:50,007,3,SM1Test,10,SM1_T9,0,2800,0,Cinema,0
3/14/24,17:57:50,007,3,SM1Test,11,SM1_T10,0,2800,0,Biscuit,0
3/14/24,17:57:50,007,3,SM1Test,12,SM1_T11,0,2800,0,Maple,0
3/14/24,17:57:50,007,3,SM1Test,13,SM1_T12,0,2800,0,Compass,0
3/14/24,17:57:50,007,3,SM1Test,14,SM1_T13,0,2800,0,Spaceship,0
3/14/24,17:57:50,007,3,SM1Test,15,SM1_T14,0,2800,0,Planet,0
3/14/24,17:57:50,007,3,SM1Test,16,SM1_T15,0,2800,0,Pet,0
3/14/24,17:57:50,007,3,SM1Test,17,SM1_T16,0,2800,0,Starfish,0
3/14/24,17:57:50,007,3,SM1Test,18,SM1_T17,0,2800,0,Island,0
3/14/24,17:57:50,007,3,SM1Test,19,SM1_T18,0,2800,0,Shower,0
3/14/24,17:57:50,007,3,SM1Test,20,SM1_T19,0,2800,0,Mango,0
3/14/24,17:57:50,007,3,SM1Test,21,SM1_T20,0,2800,0,Balloon,0
3/14/24,17:57:50,007,4,Pract_simon1,1,diaIC,208,4289,0,+,0
3/14/24,17:57:50,007,4,Pract_simon1,2,diaIC,200,692,1,+,0
3/14/24,17:57:50,007,4,Pract_simon1,3,recIC,208,486,1,+,0
3/14/24,17:57:50,007,4,Pract_simon1,4,recCO,208,505,1,+,0
3/14/24,17:57:50,007,4,Pract_simon1,5,diaCO,200,337,1,+,0
3/14/24,17:57:50,007,4,Pract_simon1,6,diaCO,200,546,1,+,0
3/14/24,17:57:50,007,5,Test_simon1,1,diaIC,208,641,0,+,0
3/14/24,17:57:50,007,5,Test_simon1,2,diaCO,200,733,1,+,0
3/14/24,17:57:50,007,5,Test_simon1,3,recIC,208,533,1,+,0
3/14/24,17:57:50,007,5,Test_simon1,4,recIC,208,798,1,+,0
3/14/24,17:57:50,007,5,Test_simon1,5,recCO,208,971,1,+,0
3/14/24,17:57:50,007,5,Test_simon1,6,diaIC,200,1569,1,+,0
3/14/24,17:57:50,007,5,Test_simon1,7,recIC,208,550,1,+,0
3/14/24,17:57:50,007,5,Test_simon1,8,diaIC,200,655,1,+,0
3/14/24,17:57:50,007,5,Test_simon1,9,diaIC,200,554,1,+,0
3/14/24,17:57:50,007,5,Test_simon1,10,diaIC,200,569,1,+,0
3/14/24,17:57:50,007,5,Test_simon1,11,diaCO,200,657,1,+,0
3/14/24,17:57:50,007,5,Test_simon1,12,diaIC,200,548,1,+,0
3/14/24,17:57:50,007,5,Test_simon1,13,recIC,208,757,1,+,0
3/14/24,17:57:50,007,5,Test_simon1,14,recCO,208,1180,1,+,0
3/14/24,17:57:50,007,5,Test_simon1,15,diaCO,200,408,1,+,0
3/14/24,17:57:50,007,5,Test_simon1,16,diaCO,200,974,1,+,0
3/14/24,17:57:50,007,5,Test_simon1,17,diaCO,200,860,1,+,0
3/14/24,17:57:50,007,5,Test_simon1,18,diaIC,200,647,1,+,0
3/14/24,17:57:50,007,5,Test_simon1,19,recCO,208,779,1,+,0
3/14/24,17:57:50,007,5,Test_simon1,20,recIC,208,593,1,+,0
3/14/24,17:57:50,007,5,Test_simon1,21,diaCO,200,568,1,+,0
3/14/24,17:57:50,007,5,Test_simon1,22,recCO,208,559,1,+,0
3/14/24,17:57:50,007,5,Test_simon1,23,recCO,208,423,1,+,0
3/14/24,17:57:50,007,5,Test_simon1,24,recCO,208,452,1,+,0
3/14/24,17:57:50,007,5,Test_simon1,25,recCO,208,416,1,+,0
3/14/24,17:57:50,007,5,Test_simon1,26,recIC,200,293,0,+,0
3/14/24,17:57:50,007,5,Test_simon1,27,recCO,208,584,1,+,0
3/14/24,17:57:50,007,5,Test_simon1,28,recIC,208,439,1,+,0
3/14/24,17:57:50,007,5,Test_simon1,29,diaCO,200,411,1,+,0
3/14/24,17:57:50,007,5,Test_simon1,30,diaCO,200,425,1,+,0
3/14/24,17:57:50,007,5,Test_simon1,31,diaIC,200,590,1,+,0
3/14/24,17:57:50,007,5,Test_simon1,32,diaIC,200,692,1,+,0
3/14/24,17:57:50,007,5,Test_simon1,33,recIC,200,582,0,+,0
3/14/24,17:57:50,007,5,Test_simon1,34,recCO,208,397,1,+,0
3/14/24,17:57:50,007,5,Test_simon1,35,recIC,208,564,1,+,0
3/14/24,17:57:50,007,5,Test_simon1,36,recCO,208,546,1,+,0
3/14/24,17:57:50,007,5,Test_simon1,37,diaCO,200,515,1,+,0
3/14/24,17:57:50,007,5,Test_simon1,38,recIC,208,716,1,+,0
3/14/24,17:57:50,007,5,Test_simon1,39,diaCO,208,717,0,+,0
3/14/24,17:57:50,007,5,Test_simon1,40,recCO,208,535,1,+,0
3/14/24,17:57:50,007,5,Test_simon1,41,diaCO,200,688,1,+,0
3/14/24,17:57:50,007,5,Test_simon1,42,diaCO,200,506,1,+,0
3/14/24,17:57:50,007,5,Test_simon1,43,recCO,208,395,1,+,0
3/14/24,17:57:50,007,5,Test_simon1,44,recIC,208,874,1,+,0
3/14/24,17:57:50,007,5,Test_simon1,45,diaCO,200,388,1,+,0
3/14/24,17:57:50,007,5,Test_simon1,46,recIC,208,563,1,+,0
3/14/24,17:57:50,007,5,Test_simon1,47,recIC,200,601,0,+,0
3/14/24,17:57:50,007,5,Test_simon1,48,recIC,208,703,1,+,0
3/14/24,17:57:50,007,5,Test_simon1,49,recIC,208,585,1,+,0
3/14/24,17:57:50,007,5,Test_simon1,50,diaIC,200,712,1,+,0
3/14/24,17:57:50,007,5,Test_simon1,51,diaCO,200,833,1,+,0
3/14/24,17:57:50,007,5,Test_simon1,52,diaIC,200,1278,1,+,0
3/14/24,17:57:50,007,5,Test_simon1,53,diaIC,200,959,1,+,0
3/14/24,17:57:50,007,5,Test_simon1,54,recIC,208,638,1,+,0
3/14/24,17:57:50,007,5,Test_simon1,55,diaIC,200,754,1,+,0
3/14/24,17:57:50,007,5,Test_simon1,56,recCO,208,568,1,+,0
3/14/24,17:57:50,007,5,Test_simon1,57,diaIC,200,552,1,+,0
3/14/24,17:57:50,007,5,Test_simon1,58,diaCO,200,336,1,+,0
3/14/24,17:57:50,007,5,Test_simon1,59,diaCO,200,313,1,+,0
3/14/24,17:57:50,007,5,Test_simon1,60,diaIC,208,371,0,+,0
3/14/24,17:57:50,007,5,Test_simon1,61,recCO,208,706,1,+,0
3/14/24,17:57:50,007,5,Test_simon1,62,recCO,208,555,1,+,0
3/14/24,17:57:50,007,5,Test_simon1,63,recCO,208,419,1,+,0
3/14/24,17:57:50,007,5,Test_simon1,64,diaIC,200,585,1,+,0
3/14/24,17:57:50,007,5,Test_simon1,65,diaIC,200,456,1,+,0
3/14/24,17:57:50,007,5,Test_simon1,66,recCO,208,371,1,+,0
3/14/24,17:57:50,007,5,Test_simon1,67,recIC,208,1251,1,+,0
3/14/24,17:57:50,007,5,Test_simon1,68,diaCO,200,508,1,+,0
3/14/24,17:57:50,007,5,Test_simon1,69,recCO,208,718,1,+,0
3/14/24,17:57:50,007,5,Test_simon1,70,recIC,208,567,1,+,0
3/14/24,17:57:50,007,5,Test_simon1,71,diaCO,200,679,1,+,0
3/14/24,17:57:50,007,5,Test_simon1,72,diaIC,200,586,1,+,0
3/14/24,17:57:50,007,5,Test_simon1,73,diaIC,200,512,1,+,0
3/14/24,17:57:50,007,5,Test_simon1,74,recIC,208,466,1,+,0
3/14/24,17:57:50,007,5,Test_simon1,75,diaIC,208,342,0,+,0
3/14/24,17:57:50,007,5,Test_simon1,76,diaCO,200,390,1,+,0
3/14/24,17:57:50,007,5,Test_simon1,77,diaIC,200,397,1,+,0
3/14/24,17:57:50,007,5,Test_simon1,78,diaIC,200,539,1,+,0
3/14/24,17:57:50,007,5,Test_simon1,79,recIC,208,915,1,+,0
3/14/24,17:57:50,007,5,Test_simon1,80,recIC,208,596,1,+,0
3/14/24,17:57:50,007,6,SM1Test_Abr,1,SM1_Abr1,water,16890,0,Ocean,0
3/14/24,17:57:50,007,6,SM1Test_Abr,2,SM1_Abr2,lip,5186,1,Pet,0
3/14/24,17:57:50,007,6,SM1Test_Abr,3,SM1_Abr3,head,6933,0,Shower,0
3/14/24,17:57:50,007,6,SM1Test_Abr,4,SM1_Abr4,downright,28846,0,Spaceship,0
3/14/24,17:57:50,007,6,SM1Test_Abr,5,SM1_Abr5,salad,6391,1,Leg,0
3/14/24,17:57:50,007,6,SM1Test_Abr,6,SM1_Abr6,town,21023,0,Goalkeeper,0
3/14/24,17:57:50,007,6,SM1Test_Abr,7,SM1_Abr7,snowball,7399,1,Scarf,0
3/14/24,17:57:50,007,6,SM1Test_Abr,8,SM1_Abr8,mirror,4544,1,Atlas,0
3/14/24,17:57:50,007,6,SM1Test_Abr,9,SM1_Abr9,marble,4318,1,Tennis,0
3/14/24,17:57:50,007,6,SM1Test_Abr,10,SM1_Abr10,wall,11310,0,Bag,0
3/14/24,17:57:50,007,6,SM1Test_Abr,11,SM1_Abr11,grass,7577,0,Field,0
3/14/24,17:57:50,007,6,SM1Test_Abr,12,SM1_Abr12,cold,5292,0,Pool,0
3/14/24,17:57:50,007,6,SM1Test_Abr,13,SM1_Abr13,flower,7550,0,Towel,0
3/14/24,17:57:50,007,6,SM1Test_Abr,14,SM1_Abr14,wheat,6575,1,Island,0
3/14/24,17:57:50,007,6,SM1Test_Abr,15,SM1_Abr15,starfish,9327,1,Bicycle,0
3/14/24,17:57:50,007,6,SM1Test_Abr,16,SM1_Abr16,wave,3378,1,Chimney,0
3/14/24,17:57:50,007,6,SM1Test_Abr,17,SM1_Abr17,stew,4897,1,Acorn,0
3/14/24,17:57:50,007,6,SM1Test_Abr,18,SM1_Abr18,popsicle,28080,0,Mango,0
3/14/24,17:57:50,007,6,SM1Test_Abr,19,SM1_Abr19,tatooine,38189,0,Planet,0
3/14/24,17:57:50,007,6,SM1Test_Abr,20,SM1_Abr20,angel,5106,1,Bird,0
3/18/24,15:13:31,008,1,SM1Practice,1,achtung,0,1700,0,Attention!,0
3/18/24,15:13:31,008,1,SM1Practice,2,SM1_P_T1,0,2800,0,Chair,0
3/18/24,15:13:31,008,1,SM1Practice,3,SM1_P_T2,0,2800,0,Lamp,0
3/18/24,15:13:31,008,1,SM1Practice,4,SM1_P_T3,0,2800,0,Phone,0
3/18/24,15:13:31,008,2,SM1Practice_Abr,1,SM1_P_Abr1,chair,11870,0,Carpet,0
3/18/24,15:13:31,008,2,SM1Practice_Abr,2,SM1_P_Abr2,window,5859,1,Chair,0
3/18/24,15:13:31,008,2,SM1Practice_Abr,3,SM1_P_Abr3,rock,4899,1,Phone,0
3/18/24,15:13:31,008,3,SM1Test,1,achtung,0,1700,0,Attention!,0
3/18/24,15:13:31,008,3,SM1Test,2,SM1_T1,0,2800,0,Angel,0
3/18/24,15:13:31,008,3,SM1Test,3,SM1_T2,0,2800,0,Marble,0
3/18/24,15:13:31,008,3,SM1Test,4,SM1_T3,0,2800,0,Leg,0
3/18/24,15:13:31,008,3,SM1Test,5,SM1_T4,0,2800,0,Wave,0
3/18/24,15:13:31,008,3,SM1Test,6,SM1_T5,0,2800,0,Atlas,0
3/18/24,15:13:31,008,3,SM1Test,7,SM1_T6,0,2800,0,Scarf,0
3/18/24,15:13:31,008,3,SM1Test,8,SM1_T7,0,2800,0,Stew,0
3/18/24,15:13:31,008,3,SM1Test,9,SM1_T8,0,2800,0,Goalkeeper,0
3/18/24,15:13:31,008,3,SM1Test,10,SM1_T9,0,2800,0,Cinema,0
3/18/24,15:13:31,008,3,SM1Test,11,SM1_T10,0,2800,0,Biscuit,0
3/18/24,15:13:31,008,3,SM1Test,12,SM1_T11,0,2800,0,Maple,0
3/18/24,15:13:31,008,3,SM1Test,13,SM1_T12,0,2800,0,Compass,0
3/18/24,15:13:31,008,3,SM1Test,14,SM1_T13,0,2800,0,Spaceship,0
3/18/24,15:13:31,008,3,SM1Test,15,SM1_T14,0,2800,0,Planet,0
3/18/24,15:13:31,008,3,SM1Test,16,SM1_T15,0,2800,0,Pet,0
3/18/24,15:13:31,008,3,SM1Test,17,SM1_T16,0,2800,0,Starfish,0
3/18/24,15:13:31,008,3,SM1Test,18,SM1_T17,0,2800,0,Island,0
3/18/24,15:13:31,008,3,SM1Test,19,SM1_T18,0,2800,0,Shower,0
3/18/24,15:13:31,008,3,SM1Test,20,SM1_T19,0,2800,0,Mango,0
3/18/24,15:13:31,008,3,SM1Test,21,SM1_T20,0,2800,0,Balloon,0
3/18/24,15:13:31,008,4,Pract_simon1,1,recIC,208,998,1,+,0
3/18/24,15:13:31,008,4,Pract_simon1,2,recIC,208,603,1,+,0
3/18/24,15:13:31,008,4,Pract_simon1,3,diaCO,200,681,1,+,0
3/18/24,15:13:31,008,4,Pract_simon1,4,recCO,208,603,1,+,0
3/18/24,15:13:31,008,4,Pract_simon1,5,diaCO,200,1257,1,+,0
3/18/24,15:13:31,008,4,Pract_simon1,6,diaIC,200,1027,1,+,0
3/18/24,15:13:31,008,5,Test_simon1,1,diaIC,200,592,1,+,0
3/18/24,15:13:31,008,5,Test_simon1,2,diaCO,200,550,1,+,0
3/18/24,15:13:31,008,5,Test_simon1,3,recIC,200,398,0,+,0
3/18/24,15:13:31,008,5,Test_simon1,4,recIC,208,452,1,+,0
3/18/24,15:13:31,008,5,Test_simon1,5,recCO,208,456,1,+,0
3/18/24,15:13:31,008,5,Test_simon1,6,diaIC,200,540,1,+,0
3/18/24,15:13:31,008,5,Test_simon1,7,recIC,208,596,1,+,0
3/18/24,15:13:31,008,5,Test_simon1,8,diaIC,200,578,1,+,0
3/18/24,15:13:31,008,5,Test_simon1,9,diaIC,200,809,1,+,0
3/18/24,15:13:31,008,5,Test_simon1,10,diaIC,200,582,1,+,0
3/18/24,15:13:31,008,5,Test_simon1,11,diaCO,200,493,1,+,0
3/18/24,15:13:31,008,5,Test_simon1,12,diaIC,200,552,1,+,0
3/18/24,15:13:31,008,5,Test_simon1,13,recIC,208,472,1,+,0
3/18/24,15:13:31,008,5,Test_simon1,14,recCO,208,594,1,+,0
3/18/24,15:13:31,008,5,Test_simon1,15,diaCO,200,616,1,+,0
3/18/24,15:13:31,008,5,Test_simon1,16,diaCO,200,629,1,+,0
3/18/24,15:13:31,008,5,Test_simon1,17,diaCO,200,626,1,+,0
3/18/24,15:13:31,008,5,Test_simon1,18,diaIC,200,543,1,+,0
3/18/24,15:13:31,008,5,Test_simon1,19,recCO,208,735,1,+,0
3/18/24,15:13:31,008,5,Test_simon1,20,recIC,208,616,1,+,0
3/18/24,15:13:31,008,5,Test_simon1,21,diaCO,200,613,1,+,0
3/18/24,15:13:31,008,5,Test_simon1,22,recCO,208,1043,1,+,0
3/18/24,15:13:31,008,5,Test_simon1,23,recCO,208,1381,1,+,0
3/18/24,15:13:31,008,5,Test_simon1,24,recCO,208,586,1,+,0
3/18/24,15:13:31,008,5,Test_simon1,25,recCO,208,665,1,+,0
3/18/24,15:13:31,008,5,Test_simon1,26,recIC,208,868,1,+,0
3/18/24,15:13:31,008,5,Test_simon1,27,recCO,208,543,1,+,0
3/18/24,15:13:31,008,5,Test_simon1,28,recIC,208,751,1,+,0
3/18/24,15:13:31,008,5,Test_simon1,29,diaCO,200,583,1,+,0
3/18/24,15:13:31,008,5,Test_simon1,30,diaCO,200,670,1,+,0
3/18/24,15:13:31,008,5,Test_simon1,31,diaIC,200,752,1,+,0
3/18/24,15:13:31,008,5,Test_simon1,32,diaIC,200,408,1,+,0
3/18/24,15:13:31,008,5,Test_simon1,33,recIC,208,582,1,+,0
3/18/24,15:13:31,008,5,Test_simon1,34,recCO,208,1117,1,+,0
3/18/24,15:13:31,008,5,Test_simon1,35,recIC,208,781,1,+,0
3/18/24,15:13:31,008,5,Test_simon1,36,recCO,208,980,1,+,0
3/18/24,15:13:31,008,5,Test_simon1,37,diaCO,200,474,1,+,0
3/18/24,15:13:31,008,5,Test_simon1,38,recIC,208,597,1,+,0
3/18/24,15:13:31,008,5,Test_simon1,39,diaCO,200,1723,1,+,0
3/18/24,15:13:31,008,5,Test_simon1,40,recCO,208,608,1,+,0
3/18/24,15:13:31,008,5,Test_simon1,41,diaCO,200,934,1,+,0
3/18/24,15:13:31,008,5,Test_simon1,42,diaCO,200,630,1,+,0
3/18/24,15:13:31,008,5,Test_simon1,43,recCO,208,419,1,+,0
3/18/24,15:13:31,008,5,Test_simon1,44,recIC,208,1105,1,+,0
3/18/24,15:13:31,008,5,Test_simon1,45,diaCO,200,665,1,+,0
3/18/24,15:13:31,008,5,Test_simon1,46,recIC,208,636,1,+,0
3/18/24,15:13:31,008,5,Test_simon1,47,recIC,208,889,1,+,0
3/18/24,15:13:31,008,5,Test_simon1,48,recIC,208,539,1,+,0
3/18/24,15:13:31,008,5,Test_simon1,49,recIC,208,498,1,+,0
3/18/24,15:13:31,008,5,Test_simon1,50,diaIC,200,732,1,+,0
3/18/24,15:13:31,008,5,Test_simon1,51,diaCO,200,1101,1,+,0
3/18/24,15:13:31,008,5,Test_simon1,52,diaIC,200,622,1,+,0
3/18/24,15:13:31,008,5,Test_simon1,53,diaIC,200,483,1,+,0
3/18/24,15:13:31,008,5,Test_simon1,54,recIC,208,614,1,+,0
3/18/24,15:13:31,008,5,Test_simon1,55,diaIC,200,619,1,+,0
3/18/24,15:13:31,008,5,Test_simon1,56,recCO,208,521,1,+,0
3/18/24,15:13:31,008,5,Test_simon1,57,diaIC,200,561,1,+,0
3/18/24,15:13:31,008,5,Test_simon1,58,diaCO,200,616,1,+,0
3/18/24,15:13:31,008,5,Test_simon1,59,diaCO,200,1014,1,+,0
3/18/24,15:13:31,008,5,Test_simon1,60,diaIC,200,1010,1,+,0
3/18/24,15:13:31,008,5,Test_simon1,61,recCO,208,623,1,+,0
3/18/24,15:13:31,008,5,Test_simon1,62,recCO,208,668,1,+,0
3/18/24,15:13:31,008,5,Test_simon1,63,recCO,208,583,1,+,0
3/18/24,15:13:31,008,5,Test_simon1,64,diaIC,200,558,1,+,0
3/18/24,15:13:31,008,5,Test_simon1,65,diaIC,200,669,1,+,0
3/18/24,15:13:31,008,5,Test_simon1,66,recCO,208,616,1,+,0
3/18/24,15:13:31,008,5,Test_simon1,67,recIC,200,1941,0,+,0
3/18/24,15:13:31,008,5,Test_simon1,68,diaCO,200,674,1,+,0
3/18/24,15:13:31,008,5,Test_simon1,69,recCO,208,493,1,+,0
3/18/24,15:13:31,008,5,Test_simon1,70,recIC,200,847,0,+,0
3/18/24,15:13:31,008,5,Test_simon1,71,diaCO,200,675,1,+,0
3/18/24,15:13:31,008,5,Test_simon1,72,diaIC,200,790,1,+,0
3/18/24,15:13:31,008,5,Test_simon1,73,diaIC,200,563,1,+,0
3/18/24,15:13:31,008,5,Test_simon1,74,recIC,208,563,1,+,0
3/18/24,15:13:31,008,5,Test_simon1,75,diaIC,200,562,1,+,0
3/18/24,15:13:31,008,5,Test_simon1,76,diaCO,200,817,1,+,0
3/18/24,15:13:31,008,5,Test_simon1,77,diaIC,200,534,1,+,0
3/18/24,15:13:31,008,5,Test_simon1,78,diaIC,200,487,1,+,0
3/18/24,15:13:31,008,5,Test_simon1,79,recIC,208,585,1,+,0
3/18/24,15:13:31,008,5,Test_simon1,80,recIC,208,680,1,+,0
3/18/24,15:13:31,008,6,SM1Test_Abr,1,SM1_Abr1,chair,34458,0,Ocean,0
3/18/24,15:13:31,008,6,SM1Test_Abr,2,SM1_Abr2,jet,56117,0,Pet,0
3/18/24,15:13:31,008,6,SM1Test_Abr,3,SM1_Abr3,cocoa,53446,0,Shower,0
3/18/24,15:13:31,008,6,SM1Test_Abr,4,SM1_Abr4,pizza,29385,0,Spaceship,0
3/18/24,15:13:31,008,6,SM1Test_Abr,5,SM1_Abr5,salad,5803,1,Leg,0
3/18/24,15:13:31,008,6,SM1Test_Abr,6,SM1_Abr6,wallet,57377,0,Goalkeeper,0
3/18/24,15:13:31,008,6,SM1Test_Abr,7,SM1_Abr7,snowball,5548,1,Scarf,0
3/18/24,15:13:31,008,6,SM1Test_Abr,8,SM1_Abr8,crown,45030,0,Atlas,0
3/18/24,15:13:31,008,6,SM1Test_Abr,9,SM1_Abr9,volleyball,146094,0,Tennis,0
3/18/24,15:13:31,008,6,SM1Test_Abr,10,SM1_Abr10,jewerly,36310,0,Bag,0
3/18/24,15:13:31,008,6,SM1Test_Abr,11,SM1_Abr11,ball,29171,0,Field,0
3/18/24,15:13:31,008,6,SM1Test_Abr,12,SM1_Abr12,ice,46238,0,Pool,0
3/18/24,15:13:31,008,6,SM1Test_Abr,13,SM1_Abr13,car,44442,0,Towel,0
3/18/24,15:13:31,008,6,SM1Test_Abr,14,SM1_Abr14,tower,81360,0,Island,0
3/18/24,15:13:31,008,6,SM1Test_Abr,15,SM1_Abr15,ocean,62904,0,Bicycle,0
3/18/24,15:13:31,008,6,SM1Test_Abr,16,SM1_Abr16,smoke,15353,0,Chimney,0
3/18/24,15:13:31,008,6,SM1Test_Abr,17,SM1_Abr17,tree,20609,0,Acorn,0
3/18/24,15:13:31,008,6,SM1Test_Abr,18,SM1_Abr18,nails,16571,0,Mango,0
3/18/24,15:13:31,008,6,SM1Test_Abr,19,SM1_Abr19,room,21481,0,Planet,0
3/18/24,15:13:31,008,6,SM1Test_Abr,20,SM1_Abr20,angel,4759,1,Bird,0
3/18/24,16:01:56,004,1,SM1Practice,1,achtung,0,1700,0,Attention!,0
3/18/24,16:01:56,004,1,SM1Practice,2,SM1_P_T1,0,2800,0,Chair,0
3/18/24,16:01:56,004,1,SM1Practice,3,SM1_P_T2,0,2800,0,Lamp,0
3/18/24,16:01:56,004,1,SM1Practice,4,SM1_P_T3,0,2800,0,Phone,0
3/18/24,16:01:56,004,2,SM1Practice_Abr,1,SM1_P_Abr1,lamp,6354,1,Carpet,0
3/18/24,16:01:56,004,2,SM1Practice_Abr,2,SM1_P_Abr2,rocket,5112,0,Chair,0
3/18/24,16:01:56,004,2,SM1Practice_Abr,3,SM1_P_Abr3,idk,3522,0,Phone,0
3/18/24,16:01:56,004,3,SM1Test,1,achtung,0,1700,0,Attention!,0
3/18/24,16:01:56,004,3,SM1Test,2,SM1_T1,0,2800,0,Angel,0
3/18/24,16:01:56,004,3,SM1Test,3,SM1_T2,0,2800,0,Marble,0
3/18/24,16:01:56,004,3,SM1Test,4,SM1_T3,0,2800,0,Leg,0
3/18/24,16:01:56,004,3,SM1Test,5,SM1_T4,0,2800,0,Wave,0
3/18/24,16:01:56,004,3,SM1Test,6,SM1_T5,0,2800,0,Atlas,0
3/18/24,16:01:56,004,3,SM1Test,7,SM1_T6,0,2800,0,Scarf,0
3/18/24,16:01:56,004,3,SM1Test,8,SM1_T7,0,2800,0,Stew,0
3/18/24,16:01:56,004,3,SM1Test,9,SM1_T8,0,2800,0,Goalkeeper,0
3/18/24,16:01:56,004,3,SM1Test,10,SM1_T9,0,2800,0,Cinema,0
3/18/24,16:01:56,004,3,SM1Test,11,SM1_T10,0,2800,0,Biscuit,0
3/18/24,16:01:56,004,3,SM1Test,12,SM1_T11,0,2800,0,Maple,0
3/18/24,16:01:56,004,3,SM1Test,13,SM1_T12,0,2800,0,Compass,0
3/18/24,16:01:56,004,3,SM1Test,14,SM1_T13,0,2800,0,Spaceship,0
3/18/24,16:01:56,004,3,SM1Test,15,SM1_T14,0,2800,0,Planet,0
3/18/24,16:01:56,004,3,SM1Test,16,SM1_T15,0,2800,0,Pet,0
3/18/24,16:01:56,004,3,SM1Test,17,SM1_T16,0,2800,0,Starfish,0
3/18/24,16:01:56,004,3,SM1Test,18,SM1_T17,0,2800,0,Island,0
3/18/24,16:01:56,004,3,SM1Test,19,SM1_T18,0,2800,0,Shower,0
3/18/24,16:01:56,004,3,SM1Test,20,SM1_T19,0,2800,0,Mango,0
3/18/24,16:01:56,004,3,SM1Test,21,SM1_T20,0,2800,0,Balloon,0
3/18/24,16:01:56,004,4,Pract_simon1,1,diaCO,200,1582,1,+,0
3/18/24,16:01:56,004,4,Pract_simon1,2,recCO,208,546,1,+,0
3/18/24,16:01:56,004,4,Pract_simon1,3,recCO,208,490,1,+,0
3/18/24,16:01:56,004,4,Pract_simon1,4,diaIC,200,500,1,+,0
3/18/24,16:01:56,004,4,Pract_simon1,5,recIC,208,495,1,+,0
3/18/24,16:01:56,004,4,Pract_simon1,6,diaCO,200,353,1,+,0
3/18/24,16:01:56,004,5,Test_simon1,1,diaIC,200,679,1,+,0
3/18/24,16:01:56,004,5,Test_simon1,2,diaCO,200,409,1,+,0
3/18/24,16:01:56,004,5,Test_simon1,3,recIC,208,342,1,+,0
3/18/24,16:01:56,004,5,Test_simon1,4,recIC,208,351,1,+,0
3/18/24,16:01:56,004,5,Test_simon1,5,recCO,208,335,1,+,0
3/18/24,16:01:56,004,5,Test_simon1,6,diaIC,200,393,1,+,0
3/18/24,16:01:56,004,5,Test_simon1,7,recIC,208,343,1,+,0
3/18/24,16:01:56,004,5,Test_simon1,8,diaIC,200,304,1,+,0
3/18/24,16:01:56,004,5,Test_simon1,9,diaIC,200,394,1,+,0
3/18/24,16:01:56,004,5,Test_simon1,10,diaIC,200,393,1,+,0
3/18/24,16:01:56,004,5,Test_simon1,11,diaCO,200,359,1,+,0
3/18/24,16:01:56,004,5,Test_simon1,12,diaIC,200,374,1,+,0
3/18/24,16:01:56,004,5,Test_simon1,13,recIC,208,302,1,+,0
3/18/24,16:01:56,004,5,Test_simon1,14,recCO,208,328,1,+,0
3/18/24,16:01:56,004,5,Test_simon1,15,diaCO,200,394,1,+,0
3/18/24,16:01:56,004,5,Test_simon1,16,diaCO,200,384,1,+,0
3/18/24,16:01:56,004,5,Test_simon1,17,diaCO,200,328,1,+,0
3/18/24,16:01:56,004,5,Test_simon1,18,diaIC,200,473,1,+,0
3/18/24,16:01:56,004,5,Test_simon1,19,recCO,208,412,1,+,0
3/18/24,16:01:56,004,5,Test_simon1,20,recIC,208,458,1,+,0
3/18/24,16:01:56,004,5,Test_simon1,21,diaCO,200,374,1,+,0
3/18/24,16:01:56,004,5,Test_simon1,22,recCO,200,397,0,+,0
3/18/24,16:01:56,004,5,Test_simon1,23,recCO,208,403,1,+,0
3/18/24,16:01:56,004,5,Test_simon1,24,recCO,208,361,1,+,0
3/18/24,16:01:56,004,5,Test_simon1,25,recCO,208,321,1,+,0
3/18/24,16:01:56,004,5,Test_simon1,26,recIC,208,411,1,+,0
3/18/24,16:01:56,004,5,Test_simon1,27,recCO,208,329,1,+,0
3/18/24,16:01:56,004,5,Test_simon1,28,recIC,208,402,1,+,0
3/18/24,16:01:56,004,5,Test_simon1,29,diaCO,200,368,1,+,0
3/18/24,16:01:56,004,5,Test_simon1,30,diaCO,200,360,1,+,0
3/18/24,16:01:56,004,5,Test_simon1,31,diaIC,200,408,1,+,0
3/18/24,16:01:56,004,5,Test_simon1,32,diaIC,200,358,1,+,0
3/18/24,16:01:56,004,5,Test_simon1,33,recIC,208,365,1,+,0
3/18/24,16:01:56,004,5,Test_simon1,34,recCO,208,309,1,+,0
3/18/24,16:01:56,004,5,Test_simon1,35,recIC,208,471,1,+,0
3/18/24,16:01:56,004,5,Test_simon1,36,recCO,208,378,1,+,0
3/18/24,16:01:56,004,5,Test_simon1,37,diaCO,200,458,1,+,0
3/18/24,16:01:56,004,5,Test_simon1,38,recIC,208,502,1,+,0
3/18/24,16:01:56,004,5,Test_simon1,39,diaCO,200,400,1,+,0
3/18/24,16:01:56,004,5,Test_simon1,40,recCO,208,326,1,+,0
3/18/24,16:01:56,004,5,Test_simon1,41,diaCO,200,584,1,+,0
3/18/24,16:01:56,004,5,Test_simon1,42,diaCO,200,358,1,+,0
3/18/24,16:01:56,004,5,Test_simon1,43,recCO,208,414,1,+,0
3/18/24,16:01:56,004,5,Test_simon1,44,recIC,208,460,1,+,0
3/18/24,16:01:56,004,5,Test_simon1,45,diaCO,200,759,1,+,0
3/18/24,16:01:56,004,5,Test_simon1,46,recIC,208,439,1,+,0
3/18/24,16:01:56,004,5,Test_simon1,47,recIC,208,419,1,+,0
3/18/24,16:01:56,004,5,Test_simon1,48,recIC,208,401,1,+,0
3/18/24,16:01:56,004,5,Test_simon1,49,recIC,200,591,0,+,0
3/18/24,16:01:56,004,5,Test_simon1,50,diaIC,200,573,1,+,0
3/18/24,16:01:56,004,5,Test_simon1,51,diaCO,200,427,1,+,0
3/18/24,16:01:56,004,5,Test_simon1,52,diaIC,200,521,1,+,0
3/18/24,16:01:56,004,5,Test_simon1,53,diaIC,200,378,1,+,0
3/18/24,16:01:56,004,5,Test_simon1,54,recIC,208,441,1,+,0
3/18/24,16:01:56,004,5,Test_simon1,55,diaIC,200,469,1,+,0
3/18/24,16:01:56,004,5,Test_simon1,56,recCO,208,481,1,+,0
3/18/24,16:01:56,004,5,Test_simon1,57,diaIC,200,476,1,+,0
3/18/24,16:01:56,004,5,Test_simon1,58,diaCO,200,399,1,+,0
3/18/24,16:01:56,004,5,Test_simon1,59,diaCO,200,350,1,+,0
3/18/24,16:01:56,004,5,Test_simon1,60,diaIC,200,398,1,+,0
3/18/24,16:01:56,004,5,Test_simon1,61,recCO,208,1156,1,+,0
3/18/24,16:01:56,004,5,Test_simon1,62,recCO,208,370,1,+,0
3/18/24,16:01:56,004,5,Test_simon1,63,recCO,208,290,1,+,0
3/18/24,16:01:56,004,5,Test_simon1,64,diaIC,200,397,1,+,0
3/18/24,16:01:56,004,5,Test_simon1,65,diaIC,200,403,1,+,0
3/18/24,16:01:56,004,5,Test_simon1,66,recCO,208,450,1,+,0
3/18/24,16:01:56,004,5,Test_simon1,67,recIC,208,542,1,+,0
3/18/24,16:01:56,004,5,Test_simon1,68,diaCO,200,1126,1,+,0
3/18/24,16:01:56,004,5,Test_simon1,69,recCO,208,541,1,+,0
3/18/24,16:01:56,004,5,Test_simon1,70,recIC,208,437,1,+,0
3/18/24,16:01:56,004,5,Test_simon1,71,diaCO,200,386,1,+,0
3/18/24,16:01:56,004,5,Test_simon1,72,diaIC,200,609,1,+,0
3/18/24,16:01:56,004,5,Test_simon1,73,diaIC,200,407,1,+,0
3/18/24,16:01:56,004,5,Test_simon1,74,recIC,208,564,1,+,0
3/18/24,16:01:56,004,5,Test_simon1,75,diaIC,200,516,1,+,0
3/18/24,16:01:56,004,5,Test_simon1,76,diaCO,200,430,1,+,0
3/18/24,16:01:56,004,5,Test_simon1,77,diaIC,200,435,1,+,0
3/18/24,16:01:56,004,5,Test_simon1,78,diaIC,200,407,1,+,0
3/18/24,16:01:56,004,5,Test_simon1,79,recIC,208,421,1,+,0
3/18/24,16:01:56,004,5,Test_simon1,80,recIC,208,410,1,+,0
3/18/24,16:01:56,004,6,SM1Test_Abr,1,SM1_Abr1,caterpillar,9453,0,Ocean,0
3/18/24,16:01:56,004,6,SM1Test_Abr,2,SM1_Abr2,dog,3558,0,Pet,0
3/18/24,16:01:56,004,6,SM1Test_Abr,3,SM1_Abr3,clamp,2438,0,Shower,0
3/18/24,16:01:56,004,6,SM1Test_Abr,4,SM1_Abr4,bro,4485,0,Spaceship,0
3/18/24,16:01:56,004,6,SM1Test_Abr,5,SM1_Abr5,shoe,1942,0,Leg,0
3/18/24,16:01:56,004,6,SM1Test_Abr,6,SM1_Abr6,ocean,2122,0,Goalkeeper,0
3/18/24,16:01:56,004,6,SM1Test_Abr,7,SM1_Abr7,hat,1807,0,Scarf,0
3/18/24,16:01:56,004,6,SM1Test_Abr,8,SM1_Abr8,compass,3031,0,Atlas,0
3/18/24,16:01:56,004,6,SM1Test_Abr,9,SM1_Abr9,Ok,5326,0,Tennis,0
3/18/24,16:01:56,004,6,SM1Test_Abr,10,SM1_Abr10,Cinema,2004,1,Bag,0
3/18/24,16:01:56,004,6,SM1Test_Abr,11,SM1_Abr11,Tennis\,5349,0,Field,0
3/18/24,16:01:56,004,6,SM1Test_Abr,12,SM1_Abr12,Field,4905,0,Pool,0
3/18/24,16:01:56,004,6,SM1Test_Abr,13,SM1_Abr13,Koala,2969,0,Towel,0
3/18/24,16:01:56,004,6,SM1Test_Abr,14,SM1_Abr14,Lagoon,7346,0,Island,0
3/18/24,16:01:56,004,6,SM1Test_Abr,15,SM1_Abr15,House,4315,0,Bicycle,0
3/18/24,16:01:56,004,6,SM1Test_Abr,16,SM1_Abr16,Pool,2739,0,Chimney,0
3/18/24,16:01:56,004,6,SM1Test_Abr,17,SM1_Abr17,Wise,2236,0,Acorn,0
3/18/24,16:01:56,004,6,SM1Test_Abr,18,SM1_Abr18,Ocean,2180,0,Mango,0
3/18/24,16:01:56,004,6,SM1Test_Abr,19,SM1_Abr19,Orbitrary,5670,0,Planet,0
3/18/24,16:01:56,004,6,SM1Test_Abr,20,SM1_Abr20,Hi,3022,0,Bird,0
3/19/24,12:33:27,013,1,SM1Practice,1,achtung,0,1700,0,Attention!,0
3/19/24,12:33:27,013,1,SM1Practice,2,SM1_P_T1,0,2800,0,Chair,0
3/19/24,12:33:27,013,1,SM1Practice,3,SM1_P_T2,0,2800,0,Lamp,0
3/19/24,12:33:27,013,1,SM1Practice,4,SM1_P_T3,0,2800,0,Phone,0
3/19/24,12:33:27,013,2,SM1Practice_Abr,1,SM1_P_Abr1,lamp,17236,1,Carpet,0
3/19/24,12:33:27,013,2,SM1Practice_Abr,2,SM1_P_Abr2,window,4065,1,Chair,0
3/19/24,12:33:27,013,2,SM1Practice_Abr,3,SM1_P_Abr3,rock,3223,1,Phone,0
3/19/24,12:33:27,013,3,SM1Test,1,achtung,0,1700,0,Attention!,0
3/19/24,12:33:27,013,3,SM1Test,2,SM1_T1,0,2800,0,Angel,0
3/19/24,12:33:27,013,3,SM1Test,3,SM1_T2,0,2800,0,Marble,0
3/19/24,12:33:27,013,3,SM1Test,4,SM1_T3,0,2800,0,Leg,0
3/19/24,12:33:27,013,3,SM1Test,5,SM1_T4,0,2800,0,Wave,0
3/19/24,12:33:27,013,3,SM1Test,6,SM1_T5,0,2800,0,Atlas,0
3/19/24,12:33:27,013,3,SM1Test,7,SM1_T6,0,2800,0,Scarf,0
3/19/24,12:33:27,013,3,SM1Test,8,SM1_T7,0,2800,0,Stew,0
3/19/24,12:33:27,013,3,SM1Test,9,SM1_T8,0,2800,0,Goalkeeper,0
3/19/24,12:33:27,013,3,SM1Test,10,SM1_T9,0,2800,0,Cinema,0
3/19/24,12:33:27,013,3,SM1Test,11,SM1_T10,0,2800,0,Biscuit,0
3/19/24,12:33:27,013,3,SM1Test,12,SM1_T11,0,2800,0,Maple,0
3/19/24,12:33:27,013,3,SM1Test,13,SM1_T12,0,2800,0,Compass,0
3/19/24,12:33:27,013,3,SM1Test,14,SM1_T13,0,2800,0,Spaceship,0
3/19/24,12:33:27,013,3,SM1Test,15,SM1_T14,0,2800,0,Planet,0
3/19/24,12:33:27,013,3,SM1Test,16,SM1_T15,0,2800,0,Pet,0
3/19/24,12:33:27,013,3,SM1Test,17,SM1_T16,0,2800,0,Starfish,0
3/19/24,12:33:27,013,3,SM1Test,18,SM1_T17,0,2800,0,Island,0
3/19/24,12:33:27,013,3,SM1Test,19,SM1_T18,0,2800,0,Shower,0
3/19/24,12:33:27,013,3,SM1Test,20,SM1_T19,0,2800,0,Mango,0
3/19/24,12:33:27,013,3,SM1Test,21,SM1_T20,0,2800,0,Balloon,0
3/19/24,12:33:27,013,4,Pract_simon1,1,recIC,208,1749,1,+,0
3/19/24,12:33:27,013,4,Pract_simon1,2,diaCO,200,691,1,+,0
3/19/24,12:33:27,013,4,Pract_simon1,3,diaIC,200,837,1,+,0
3/19/24,12:33:27,013,4,Pract_simon1,4,recCO,208,617,1,+,0
3/19/24,12:33:27,013,4,Pract_simon1,5,recIC,208,845,1,+,0
3/19/24,12:33:27,013,4,Pract_simon1,6,recCO,208,497,1,+,0
3/19/24,12:33:27,013,5,Test_simon1,1,diaIC,200,695,1,+,0
3/19/24,12:33:27,013,5,Test_simon1,2,diaCO,200,537,1,+,0
3/19/24,12:33:27,013,5,Test_simon1,3,recIC,208,618,1,+,0
3/19/24,12:33:27,013,5,Test_simon1,4,recIC,208,631,1,+,0
3/19/24,12:33:27,013,5,Test_simon1,5,recCO,208,516,1,+,0
3/19/24,12:33:27,013,5,Test_simon1,6,diaIC,200,718,1,+,0
3/19/24,12:33:27,013,5,Test_simon1,7,recIC,208,575,1,+,0
3/19/24,12:33:27,013,5,Test_simon1,8,diaIC,200,845,1,+,0
3/19/24,12:33:27,013,5,Test_simon1,9,diaIC,200,696,1,+,0
3/19/24,12:33:27,013,5,Test_simon1,10,diaIC,200,650,1,+,0
3/19/24,12:33:27,013,5,Test_simon1,11,diaCO,200,582,1,+,0
3/19/24,12:33:27,013,5,Test_simon1,12,diaIC,200,573,1,+,0
3/19/24,12:33:27,013,5,Test_simon1,13,recIC,208,540,1,+,0
3/19/24,12:33:27,013,5,Test_simon1,14,recCO,208,436,1,+,0
3/19/24,12:33:27,013,5,Test_simon1,15,diaCO,200,642,1,+,0
3/19/24,12:33:27,013,5,Test_simon1,16,diaCO,200,629,1,+,0
3/19/24,12:33:27,013,5,Test_simon1,17,diaCO,200,433,1,+,0
3/19/24,12:33:27,013,5,Test_simon1,18,diaIC,200,615,1,+,0
3/19/24,12:33:27,013,5,Test_simon1,19,recCO,208,532,1,+,0
3/19/24,12:33:27,013,5,Test_simon1,20,recIC,208,573,1,+,0
3/19/24,12:33:27,013,5,Test_simon1,21,diaCO,200,572,1,+,0
3/19/24,12:33:27,013,5,Test_simon1,22,recCO,208,619,1,+,0
3/19/24,12:33:27,013,5,Test_simon1,23,recCO,208,400,1,+,0
3/19/24,12:33:27,013,5,Test_simon1,24,recCO,208,486,1,+,0
3/19/24,12:33:27,013,5,Test_simon1,25,recCO,208,385,1,+,0
3/19/24,12:33:27,013,5,Test_simon1,26,recIC,208,552,1,+,0
3/19/24,12:33:27,013,5,Test_simon1,27,recCO,208,481,1,+,0
3/19/24,12:33:27,013,5,Test_simon1,28,recIC,208,500,1,+,0
3/19/24,12:33:27,013,5,Test_simon1,29,diaCO,200,702,1,+,0
3/19/24,12:33:27,013,5,Test_simon1,30,diaCO,200,456,1,+,0
3/19/24,12:33:27,013,5,Test_simon1,31,diaIC,200,659,1,+,0
3/19/24,12:33:27,013,5,Test_simon1,32,diaIC,200,766,1,+,0
3/19/24,12:33:27,013,5,Test_simon1,33,recIC,208,581,1,+,0
3/19/24,12:33:27,013,5,Test_simon1,34,recCO,208,548,1,+,0
3/19/24,12:33:27,013,5,Test_simon1,35,recIC,208,445,1,+,0
3/19/24,12:33:27,013,5,Test_simon1,36,recCO,208,401,1,+,0
3/19/24,12:33:27,013,5,Test_simon1,37,diaCO,200,608,1,+,0
3/19/24,12:33:27,013,5,Test_simon1,38,recIC,208,613,1,+,0
3/19/24,12:33:27,013,5,Test_simon1,39,diaCO,200,954,1,+,0
3/19/24,12:33:27,013,5,Test_simon1,40,recCO,208,537,1,+,0
3/19/24,12:33:27,013,5,Test_simon1,41,diaCO,200,657,1,+,0
3/19/24,12:33:27,013,5,Test_simon1,42,diaCO,200,373,1,+,0
3/19/24,12:33:27,013,5,Test_simon1,43,recCO,208,460,1,+,0
3/19/24,12:33:27,013,5,Test_simon1,44,recIC,208,784,1,+,0
3/19/24,12:33:27,013,5,Test_simon1,45,diaCO,200,686,1,+,0
3/19/24,12:33:27,013,5,Test_simon1,46,recIC,208,704,1,+,0
3/19/24,12:33:27,013,5,Test_simon1,47,recIC,208,401,1,+,0
3/19/24,12:33:27,013,5,Test_simon1,48,recIC,208,488,1,+,0
3/19/24,12:33:27,013,5,Test_simon1,49,recIC,208,450,1,+,0
3/19/24,12:33:27,013,5,Test_simon1,50,diaIC,200,535,1,+,0
3/19/24,12:33:27,013,5,Test_simon1,51,diaCO,200,408,1,+,0
3/19/24,12:33:27,013,5,Test_simon1,52,diaIC,200,406,1,+,0
3/19/24,12:33:27,013,5,Test_simon1,53,diaIC,200,571,1,+,0
3/19/24,12:33:27,013,5,Test_simon1,54,recIC,208,634,1,+,0
3/19/24,12:33:27,013,5,Test_simon1,55,diaIC,200,574,1,+,0
3/19/24,12:33:27,013,5,Test_simon1,56,recCO,208,573,1,+,0
3/19/24,12:33:27,013,5,Test_simon1,57,diaIC,200,604,1,+,0
3/19/24,12:33:27,013,5,Test_simon1,58,diaCO,200,545,1,+,0
3/19/24,12:33:27,013,5,Test_simon1,59,diaCO,200,522,1,+,0
3/19/24,12:33:27,013,5,Test_simon1,60,diaIC,200,971,1,+,0
3/19/24,12:33:27,013,5,Test_simon1,61,recCO,208,465,1,+,0
3/19/24,12:33:27,013,5,Test_simon1,62,recCO,208,404,1,+,0
3/19/24,12:33:27,013,5,Test_simon1,63,recCO,208,426,1,+,0
3/19/24,12:33:27,013,5,Test_simon1,64,diaIC,200,599,1,+,0
3/19/24,12:33:27,013,5,Test_simon1,65,diaIC,200,461,1,+,0
3/19/24,12:33:27,013,5,Test_simon1,66,recCO,208,601,1,+,0
3/19/24,12:33:27,013,5,Test_simon1,67,recIC,208,1487,1,+,0
3/19/24,12:33:27,013,5,Test_simon1,68,diaCO,200,552,1,+,0
3/19/24,12:33:27,013,5,Test_simon1,69,recCO,208,2112,1,+,0
3/19/24,12:33:27,013,5,Test_simon1,70,recIC,208,878,1,+,0
3/19/24,12:33:27,013,5,Test_simon1,71,diaCO,200,592,1,+,0
3/19/24,12:33:27,013,5,Test_simon1,72,diaIC,200,1406,1,+,0
3/19/24,12:33:27,013,5,Test_simon1,73,diaIC,200,578,1,+,0
3/19/24,12:33:27,013,5,Test_simon1,74,recIC,208,529,1,+,0
3/19/24,12:33:27,013,5,Test_simon1,75,diaIC,200,738,1,+,0
3/19/24,12:33:27,013,5,Test_simon1,76,diaCO,200,1033,1,+,0
3/19/24,12:33:27,013,5,Test_simon1,77,diaIC,200,653,1,+,0
3/19/24,12:33:27,013,5,Test_simon1,78,diaIC,200,561,1,+,0
3/19/24,12:33:27,013,5,Test_simon1,79,recIC,208,649,1,+,0
3/19/24,12:33:27,013,5,Test_simon1,80,recIC,208,533,1,+,0
3/19/24,12:33:27,013,6,SM1Test_Abr,1,SM1_Abr1,?,5438,0,Ocean,0
3/19/24,12:33:27,013,6,SM1Test_Abr,2,SM1_Abr2,?,1758,0,Pet,0
3/19/24,12:33:27,013,6,SM1Test_Abr,3,SM1_Abr3,?,2426,0,Shower,0
3/19/24,12:33:27,013,6,SM1Test_Abr,4,SM1_Abr4,?,2842,0,Spaceship,0
3/19/24,12:33:27,013,6,SM1Test_Abr,5,SM1_Abr5,?,2744,0,Leg,0
3/19/24,12:33:27,013,6,SM1Test_Abr,6,SM1_Abr6,?,1203,0,Goalkeeper,0
3/19/24,12:33:27,013,6,SM1Test_Abr,7,SM1_Abr7,?,1014,0,Scarf,0
3/19/24,12:33:27,013,6,SM1Test_Abr,8,SM1_Abr8,?,1561,0,Atlas,0
3/19/24,12:33:27,013,6,SM1Test_Abr,9,SM1_Abr9,?,1205,0,Tennis,0
3/19/24,12:33:27,013,6,SM1Test_Abr,10,SM1_Abr10,?,1304,0,Bag,0
3/19/24,12:33:27,013,6,SM1Test_Abr,11,SM1_Abr11,?,1255,0,Field,0
3/19/24,12:33:27,013,6,SM1Test_Abr,12,SM1_Abr12,?,2272,0,Pool,0
3/19/24,12:33:27,013,6,SM1Test_Abr,13,SM1_Abr13,?,918,0,Towel,0
3/19/24,12:33:27,013,6,SM1Test_Abr,14,SM1_Abr14,?,1133,0,Island,0
3/19/24,12:33:27,013,6,SM1Test_Abr,15,SM1_Abr15,?,1748,0,Bicycle,0
3/19/24,12:33:27,013,6,SM1Test_Abr,16,SM1_Abr16,?,2120,0,Chimney,0
3/19/24,12:33:27,013,6,SM1Test_Abr,17,SM1_Abr17,stew,3285,1,Acorn,0
3/19/24,12:33:27,013,6,SM1Test_Abr,18,SM1_Abr18,?,2472,0,Mango,0
3/19/24,12:33:27,013,6,SM1Test_Abr,19,SM1_Abr19,?,3445,0,Planet,0
3/19/24,12:33:27,013,6,SM1Test_Abr,20,SM1_Abr20,?,1729,0,Bird,0
3/19/24,13:32:56,014,1,SM1Practice,1,achtung,0,1700,0,Attention!,0
3/19/24,13:32:56,014,1,SM1Practice,2,SM1_P_T1,0,2800,0,Chair,0
3/19/24,13:32:56,014,1,SM1Practice,3,SM1_P_T2,0,2800,0,Lamp,0
3/19/24,13:32:56,014,1,SM1Practice,4,SM1_P_T3,0,2800,0,Phone,0
3/19/24,13:32:56,014,2,SM1Practice_Abr,1,SM1_P_Abr1,chair,8427,0,Carpet,0
3/19/24,13:32:56,014,2,SM1Practice_Abr,2,SM1_P_Abr2,carpet,13284,0,Chair,0
3/19/24,13:32:56,014,2,SM1Practice_Abr,3,SM1_P_Abr3,window,4207,0,Phone,0
3/19/24,13:32:56,014,3,SM1Test,1,achtung,0,1700,0,Attention!,0
3/19/24,13:32:56,014,3,SM1Test,2,SM1_T1,0,2800,0,Angel,0
3/19/24,13:32:56,014,3,SM1Test,3,SM1_T2,0,2800,0,Marble,0
3/19/24,13:32:56,014,3,SM1Test,4,SM1_T3,0,2800,0,Leg,0
3/19/24,13:32:56,014,3,SM1Test,5,SM1_T4,0,2800,0,Wave,0
3/19/24,13:32:56,014,3,SM1Test,6,SM1_T5,0,2800,0,Atlas,0
3/19/24,13:32:56,014,3,SM1Test,7,SM1_T6,0,2800,0,Scarf,0
3/19/24,13:32:56,014,3,SM1Test,8,SM1_T7,0,2800,0,Stew,0
3/19/24,13:32:56,014,3,SM1Test,9,SM1_T8,0,2800,0,Goalkeeper,0
3/19/24,13:32:56,014,3,SM1Test,10,SM1_T9,0,2800,0,Cinema,0
3/19/24,13:32:56,014,3,SM1Test,11,SM1_T10,0,2800,0,Biscuit,0
3/19/24,13:32:56,014,3,SM1Test,12,SM1_T11,0,2800,0,Maple,0
3/19/24,13:32:56,014,3,SM1Test,13,SM1_T12,0,2800,0,Compass,0
3/19/24,13:32:56,014,3,SM1Test,14,SM1_T13,0,2800,0,Spaceship,0
3/19/24,13:32:56,014,3,SM1Test,15,SM1_T14,0,2800,0,Planet,0
3/19/24,13:32:56,014,3,SM1Test,16,SM1_T15,0,2800,0,Pet,0
3/19/24,13:32:56,014,3,SM1Test,17,SM1_T16,0,2800,0,Starfish,0
3/19/24,13:32:56,014,3,SM1Test,18,SM1_T17,0,2800,0,Island,0
3/19/24,13:32:56,014,3,SM1Test,19,SM1_T18,0,2800,0,Shower,0
3/19/24,13:32:56,014,3,SM1Test,20,SM1_T19,0,2800,0,Mango,0
3/19/24,13:32:56,014,3,SM1Test,21,SM1_T20,0,2800,0,Balloon,0
3/19/24,13:32:56,014,4,Pract_simon1,1,diaIC,200,1067,1,+,0
3/19/24,13:32:56,014,4,Pract_simon1,2,diaIC,200,877,1,+,0
3/19/24,13:32:56,014,4,Pract_simon1,3,recIC,208,560,1,+,0
3/19/24,13:32:56,014,4,Pract_simon1,4,diaCO,200,607,1,+,0
3/19/24,13:32:56,014,4,Pract_simon1,5,diaCO,200,461,1,+,0
3/19/24,13:32:56,014,4,Pract_simon1,6,recCO,208,432,1,+,0
3/19/24,13:32:56,014,5,Test_simon1,1,diaIC,200,589,1,+,0
3/19/24,13:32:56,014,5,Test_simon1,2,diaCO,200,580,1,+,0
3/19/24,13:32:56,014,5,Test_simon1,3,recIC,208,515,1,+,0
3/19/24,13:32:56,014,5,Test_simon1,4,recIC,208,548,1,+,0
3/19/24,13:32:56,014,5,Test_simon1,5,recCO,208,445,1,+,0
3/19/24,13:32:56,014,5,Test_simon1,6,diaIC,200,505,1,+,0
3/19/24,13:32:56,014,5,Test_simon1,7,recIC,208,491,1,+,0
3/19/24,13:32:56,014,5,Test_simon1,8,diaIC,200,652,1,+,0
3/19/24,13:32:56,014,5,Test_simon1,9,diaIC,200,504,1,+,0
3/19/24,13:32:56,014,5,Test_simon1,10,diaIC,200,498,1,+,0
3/19/24,13:32:56,014,5,Test_simon1,11,diaCO,200,500,1,+,0
3/19/24,13:32:56,014,5,Test_simon1,12,diaIC,200,479,1,+,0
3/19/24,13:32:56,014,5,Test_simon1,13,recIC,208,378,1,+,0
3/19/24,13:32:56,014,5,Test_simon1,14,recCO,208,449,1,+,0
3/19/24,13:32:56,014,5,Test_simon1,15,diaCO,200,429,1,+,0
3/19/24,13:32:56,014,5,Test_simon1,16,diaCO,200,458,1,+,0
3/19/24,13:32:56,014,5,Test_simon1,17,diaCO,200,429,1,+,0
3/19/24,13:32:56,014,5,Test_simon1,18,diaIC,200,563,1,+,0
3/19/24,13:32:56,014,5,Test_simon1,19,recCO,200,722,0,+,0
3/19/24,13:32:56,014,5,Test_simon1,20,recIC,208,483,1,+,0
3/19/24,13:32:56,014,5,Test_simon1,21,diaCO,200,518,1,+,0
3/19/24,13:32:56,014,5,Test_simon1,22,recCO,208,480,1,+,0
3/19/24,13:32:56,014,5,Test_simon1,23,recCO,208,571,1,+,0
3/19/24,13:32:56,014,5,Test_simon1,24,recCO,208,544,1,+,0
3/19/24,13:32:56,014,5,Test_simon1,25,recCO,208,513,1,+,0
3/19/24,13:32:56,014,5,Test_simon1,26,recIC,208,578,1,+,0
3/19/24,13:32:56,014,5,Test_simon1,27,recCO,208,505,1,+,0
3/19/24,13:32:56,014,5,Test_simon1,28,recIC,208,611,1,+,0
3/19/24,13:32:56,014,5,Test_simon1,29,diaCO,200,560,1,+,0
3/19/24,13:32:56,014,5,Test_simon1,30,diaCO,200,504,1,+,0
3/19/24,13:32:56,014,5,Test_simon1,31,diaIC,200,602,1,+,0
3/19/24,13:32:56,014,5,Test_simon1,32,diaIC,200,543,1,+,0
3/19/24,13:32:56,014,5,Test_simon1,33,recIC,208,599,1,+,0
3/19/24,13:32:56,014,5,Test_simon1,34,recCO,208,493,1,+,0
3/19/24,13:32:56,014,5,Test_simon1,35,recIC,208,696,1,+,0
3/19/24,13:32:56,014,5,Test_simon1,36,recCO,208,402,1,+,0
3/19/24,13:32:56,014,5,Test_simon1,37,diaCO,200,464,1,+,0
3/19/24,13:32:56,014,5,Test_simon1,38,recIC,208,556,1,+,0
3/19/24,13:32:56,014,5,Test_simon1,39,diaCO,200,540,1,+,0
3/19/24,13:32:56,014,5,Test_simon1,40,recCO,208,451,1,+,0
3/19/24,13:32:56,014,5,Test_simon1,41,diaCO,200,503,1,+,0
3/19/24,13:32:56,014,5,Test_simon1,42,diaCO,200,481,1,+,0
3/19/24,13:32:56,014,5,Test_simon1,43,recCO,208,572,1,+,0
3/19/24,13:32:56,014,5,Test_simon1,44,recIC,208,563,1,+,0
3/19/24,13:32:56,014,5,Test_simon1,45,diaCO,200,523,1,+,0
3/19/24,13:32:56,014,5,Test_simon1,46,recIC,208,604,1,+,0
3/19/24,13:32:56,014,5,Test_simon1,47,recIC,208,433,1,+,0
3/19/24,13:32:56,014,5,Test_simon1,48,recIC,208,573,1,+,0
3/19/24,13:32:56,014,5,Test_simon1,49,recIC,208,468,1,+,0
3/19/24,13:32:56,014,5,Test_simon1,50,diaIC,200,560,1,+,0
3/19/24,13:32:56,014,5,Test_simon1,51,diaCO,200,584,1,+,0
3/19/24,13:32:56,014,5,Test_simon1,52,diaIC,200,566,1,+,0
3/19/24,13:32:56,014,5,Test_simon1,53,diaIC,200,654,1,+,0
3/19/24,13:32:56,014,5,Test_simon1,54,recIC,208,465,1,+,0
3/19/24,13:32:56,014,5,Test_simon1,55,diaIC,200,533,1,+,0
3/19/24,13:32:56,014,5,Test_simon1,56,recCO,208,558,1,+,0
3/19/24,13:32:56,014,5,Test_simon1,57,diaIC,200,629,1,+,0
3/19/24,13:32:56,014,5,Test_simon1,58,diaCO,200,897,1,+,0
3/19/24,13:32:56,014,5,Test_simon1,59,diaCO,200,587,1,+,0
3/19/24,13:32:56,014,5,Test_simon1,60,diaIC,200,649,1,+,0
3/19/24,13:32:56,014,5,Test_simon1,61,recCO,208,605,1,+,0
3/19/24,13:32:56,014,5,Test_simon1,62,recCO,208,667,1,+,0
3/19/24,13:32:56,014,5,Test_simon1,63,recCO,208,550,1,+,0
3/19/24,13:32:56,014,5,Test_simon1,64,diaIC,200,541,1,+,0
3/19/24,13:32:56,014,5,Test_simon1,65,diaIC,200,1230,1,+,0
3/19/24,13:32:56,014,5,Test_simon1,66,recCO,208,497,1,+,0
3/19/24,13:32:56,014,5,Test_simon1,67,recIC,208,667,1,+,0
3/19/24,13:32:56,014,5,Test_simon1,68,diaCO,200,703,1,+,0
3/19/24,13:32:56,014,5,Test_simon1,69,recCO,208,577,1,+,0
3/19/24,13:32:56,014,5,Test_simon1,70,recIC,208,664,1,+,0
3/19/24,13:32:56,014,5,Test_simon1,71,diaCO,200,571,1,+,0
3/19/24,13:32:56,014,5,Test_simon1,72,diaIC,200,601,1,+,0
3/19/24,13:32:56,014,5,Test_simon1,73,diaIC,200,511,1,+,0
3/19/24,13:32:56,014,5,Test_simon1,74,recIC,208,489,1,+,0
3/19/24,13:32:56,014,5,Test_simon1,75,diaIC,200,515,1,+,0
3/19/24,13:32:56,014,5,Test_simon1,76,diaCO,200,613,1,+,0
3/19/24,13:32:56,014,5,Test_simon1,77,diaIC,200,602,1,+,0
3/19/24,13:32:56,014,5,Test_simon1,78,diaIC,200,560,1,+,0
3/19/24,13:32:56,014,5,Test_simon1,79,recIC,208,464,1,+,0
3/19/24,13:32:56,014,5,Test_simon1,80,recIC,208,523,1,+,0
3/19/24,13:32:56,014,6,SM1Test_Abr,1,SM1_Abr1,golf,20101,0,Ocean,0
3/19/24,13:32:56,014,6,SM1Test_Abr,2,SM1_Abr2,screen,9045,0,Pet,0
3/19/24,13:32:56,014,6,SM1Test_Abr,3,SM1_Abr3,snow,5494,0,Shower,0
3/19/24,13:32:56,014,6,SM1Test_Abr,4,SM1_Abr4,cloud,10087,0,Spaceship,0
3/19/24,13:32:56,014,6,SM1Test_Abr,5,SM1_Abr5,pet,9178,0,Leg,0
3/19/24,13:32:56,014,6,SM1Test_Abr,6,SM1_Abr6,feild,28068,0,Goalkeeper,0
3/19/24,13:32:56,014,6,SM1Test_Abr,7,SM1_Abr7,window,15176,0,Scarf,0
3/19/24,13:32:56,014,6,SM1Test_Abr,8,SM1_Abr8,window,3741,0,Atlas,0
3/19/24,13:32:56,014,6,SM1Test_Abr,9,SM1_Abr9,grass,15101,0,Tennis,0
3/19/24,13:32:56,014,6,SM1Test_Abr,10,SM1_Abr10,snow,35742,0,Bag,0
3/19/24,13:32:56,014,6,SM1Test_Abr,11,SM1_Abr11,snow,26683,0,Field,0
3/19/24,13:32:56,014,6,SM1Test_Abr,12,SM1_Abr12,bag,10343,0,Pool,0
3/19/24,13:32:56,014,6,SM1Test_Abr,13,SM1_Abr13,feild,22624,0,Towel,0
3/19/24,13:32:56,014,6,SM1Test_Abr,14,SM1_Abr14,sand,4039,0,Island,0
3/19/24,13:32:56,014,6,SM1Test_Abr,15,SM1_Abr15,,28798,0,Bicycle,0
3/19/24,13:32:56,014,6,SM1Test_Abr,16,SM1_Abr16,cash,68928,0,Chimney,0
3/19/24,13:32:56,014,6,SM1Test_Abr,17,SM1_Abr17,tree,7301,0,Acorn,0
3/19/24,13:32:56,014,6,SM1Test_Abr,18,SM1_Abr18,slice,7039,0,Mango,0
3/19/24,13:32:56,014,6,SM1Test_Abr,19,SM1_Abr19,atlis,3647,0,Planet,0
3/19/24,13:32:56,014,6,SM1Test_Abr,20,SM1_Abr20,tree,3657,0,Bird,0
3/20/24,14:55:48,020,1,SM1Practice,1,achtung,0,1700,0,Attention!,0
3/20/24,14:55:48,020,1,SM1Practice,2,SM1_P_T1,0,2800,0,Chair,0
3/20/24,14:55:48,020,1,SM1Practice,3,SM1_P_T2,0,2800,0,Lamp,0
3/20/24,14:55:48,020,1,SM1Practice,4,SM1_P_T3,0,2800,0,Phone,0
3/20/24,14:55:48,020,2,SM1Practice_Abr,1,SM1_P_Abr1,land,6095,0,Carpet,0
3/20/24,14:55:48,020,2,SM1Practice_Abr,2,SM1_P_Abr2,window,2345,1,Chair,0
3/20/24,14:55:48,020,2,SM1Practice_Abr,3,SM1_P_Abr3,carpet,2647,0,Phone,0
3/20/24,14:55:48,020,3,SM1Test,1,achtung,0,1700,0,Attention!,0
3/20/24,14:55:48,020,3,SM1Test,2,SM1_T1,0,2800,0,Angel,0
3/20/24,14:55:48,020,3,SM1Test,3,SM1_T2,0,2800,0,Marble,0
3/20/24,14:55:48,020,3,SM1Test,4,SM1_T3,0,2800,0,Leg,0
3/20/24,14:55:48,020,3,SM1Test,5,SM1_T4,0,2800,0,Wave,0
3/20/24,14:55:48,020,3,SM1Test,6,SM1_T5,0,2800,0,Atlas,0
3/20/24,14:55:48,020,3,SM1Test,7,SM1_T6,0,2800,0,Scarf,0
3/20/24,14:55:48,020,3,SM1Test,8,SM1_T7,0,2800,0,Stew,0
3/20/24,14:55:48,020,3,SM1Test,9,SM1_T8,0,2800,0,Goalkeeper,0
3/20/24,14:55:48,020,3,SM1Test,10,SM1_T9,0,2800,0,Cinema,0
3/20/24,14:55:48,020,3,SM1Test,11,SM1_T10,0,2800,0,Biscuit,0
3/20/24,14:55:48,020,3,SM1Test,12,SM1_T11,0,2800,0,Maple,0
3/20/24,14:55:48,020,3,SM1Test,13,SM1_T12,0,2800,0,Compass,0
3/20/24,14:55:48,020,3,SM1Test,14,SM1_T13,0,2800,0,Spaceship,0
3/20/24,14:55:48,020,3,SM1Test,15,SM1_T14,0,2800,0,Planet,0
3/20/24,14:55:48,020,3,SM1Test,16,SM1_T15,0,2800,0,Pet,0
3/20/24,14:55:48,020,3,SM1Test,17,SM1_T16,0,2800,0,Starfish,0
3/20/24,14:55:48,020,3,SM1Test,18,SM1_T17,0,2800,0,Island,0
3/20/24,14:55:48,020,3,SM1Test,19,SM1_T18,0,2800,0,Shower,0
3/20/24,14:55:48,020,3,SM1Test,20,SM1_T19,0,2800,0,Mango,0
3/20/24,14:55:48,020,3,SM1Test,21,SM1_T20,0,2800,0,Balloon,0
3/20/24,14:55:48,020,4,Pract_simon1,1,recCO,208,1129,1,+,0
3/20/24,14:55:48,020,4,Pract_simon1,2,recIC,208,913,1,+,0
3/20/24,14:55:48,020,4,Pract_simon1,3,diaCO,208,513,0,+,0
3/20/24,14:55:48,020,4,Pract_simon1,4,diaIC,200,851,1,+,0
3/20/24,14:55:48,020,4,Pract_simon1,5,recIC,208,671,1,+,0
3/20/24,14:55:48,020,4,Pract_simon1,6,recCO,208,505,1,+,0
3/20/24,14:55:48,020,5,Test_simon1,1,diaIC,200,907,1,+,0
3/20/24,14:55:48,020,5,Test_simon1,2,diaCO,200,436,1,+,0
3/20/24,14:55:48,020,5,Test_simon1,3,recIC,208,577,1,+,0
3/20/24,14:55:48,020,5,Test_simon1,4,recIC,208,408,1,+,0
3/20/24,14:55:48,020,5,Test_simon1,5,recCO,208,622,1,+,0
3/20/24,14:55:48,020,5,Test_simon1,6,diaIC,200,579,1,+,0
3/20/24,14:55:48,020,5,Test_simon1,7,recIC,208,585,1,+,0
3/20/24,14:55:48,020,5,Test_simon1,8,diaIC,200,536,1,+,0
3/20/24,14:55:48,020,5,Test_simon1,9,diaIC,200,529,1,+,0
3/20/24,14:55:48,020,5,Test_simon1,10,diaIC,200,450,1,+,0
3/20/24,14:55:48,020,5,Test_simon1,11,diaCO,200,454,1,+,0
3/20/24,14:55:48,020,5,Test_simon1,12,diaIC,200,450,1,+,0
3/20/24,14:55:48,020,5,Test_simon1,13,recIC,208,454,1,+,0
3/20/24,14:55:48,020,5,Test_simon1,14,recCO,208,442,1,+,0
3/20/24,14:55:48,020,5,Test_simon1,15,diaCO,200,422,1,+,0
3/20/24,14:55:48,020,5,Test_simon1,16,diaCO,200,372,1,+,0
3/20/24,14:55:48,020,5,Test_simon1,17,diaCO,200,371,1,+,0
3/20/24,14:55:48,020,5,Test_simon1,18,diaIC,200,386,1,+,0
3/20/24,14:55:48,020,5,Test_simon1,19,recCO,208,409,1,+,0
3/20/24,14:55:48,020,5,Test_simon1,20,recIC,208,431,1,+,0
3/20/24,14:55:48,020,5,Test_simon1,21,diaCO,200,395,1,+,0
3/20/24,14:55:48,020,5,Test_simon1,22,recCO,208,538,1,+,0
3/20/24,14:55:48,020,5,Test_simon1,23,recCO,208,378,1,+,0
3/20/24,14:55:48,020,5,Test_simon1,24,recCO,208,393,1,+,0
3/20/24,14:55:48,020,5,Test_simon1,25,recCO,208,695,1,+,0
3/20/24,14:55:48,020,5,Test_simon1,26,recIC,208,449,1,+,0
3/20/24,14:55:48,020,5,Test_simon1,27,recCO,208,430,1,+,0
3/20/24,14:55:48,020,5,Test_simon1,28,recIC,208,395,1,+,0
3/20/24,14:55:48,020,5,Test_simon1,29,diaCO,200,497,1,+,0
3/20/24,14:55:48,020,5,Test_simon1,30,diaCO,200,412,1,+,0
3/20/24,14:55:48,020,5,Test_simon1,31,diaIC,200,513,1,+,0
3/20/24,14:55:48,020,5,Test_simon1,32,diaIC,200,475,1,+,0
3/20/24,14:55:48,020,5,Test_simon1,33,recIC,208,422,1,+,0
3/20/24,14:55:48,020,5,Test_simon1,34,recCO,208,443,1,+,0
3/20/24,14:55:48,020,5,Test_simon1,35,recIC,208,647,1,+,0
3/20/24,14:55:48,020,5,Test_simon1,36,recCO,208,467,1,+,0
3/20/24,14:55:48,020,5,Test_simon1,37,diaCO,200,511,1,+,0
3/20/24,14:55:48,020,5,Test_simon1,38,recIC,208,537,1,+,0
3/20/24,14:55:48,020,5,Test_simon1,39,diaCO,200,985,1,+,0
3/20/24,14:55:48,020,5,Test_simon1,40,recCO,208,423,1,+,0
3/20/24,14:55:48,020,5,Test_simon1,41,diaCO,200,501,1,+,0
3/20/24,14:55:48,020,5,Test_simon1,42,diaCO,200,503,1,+,0
3/20/24,14:55:48,020,5,Test_simon1,43,recCO,208,441,1,+,0
3/20/24,14:55:48,020,5,Test_simon1,44,recIC,208,493,1,+,0
3/20/24,14:55:48,020,5,Test_simon1,45,diaCO,200,544,1,+,0
3/20/24,14:55:48,020,5,Test_simon1,46,recIC,208,496,1,+,0
3/20/24,14:55:48,020,5,Test_simon1,47,recIC,208,466,1,+,0
3/20/24,14:55:48,020,5,Test_simon1,48,recIC,208,454,1,+,0
3/20/24,14:55:48,020,5,Test_simon1,49,recIC,208,450,1,+,0
3/20/24,14:55:48,020,5,Test_simon1,50,diaIC,200,414,1,+,0
3/20/24,14:55:48,020,5,Test_simon1,51,diaCO,200,468,1,+,0
3/20/24,14:55:48,020,5,Test_simon1,52,diaIC,200,584,1,+,0
3/20/24,14:55:48,020,5,Test_simon1,53,diaIC,200,430,1,+,0
3/20/24,14:55:48,020,5,Test_simon1,54,recIC,208,323,1,+,0
3/20/24,14:55:48,020,5,Test_simon1,55,diaIC,200,437,1,+,0
3/20/24,14:55:48,020,5,Test_simon1,56,recCO,208,409,1,+,0
3/20/24,14:55:48,020,5,Test_simon1,57,diaIC,208,479,0,+,0
3/20/24,14:55:48,020,5,Test_simon1,58,diaCO,200,770,1,+,0
3/20/24,14:55:48,020,5,Test_simon1,59,diaCO,200,417,1,+,0
3/20/24,14:55:48,020,5,Test_simon1,60,diaIC,200,519,1,+,0
3/20/24,14:55:48,020,5,Test_simon1,61,recCO,208,576,1,+,0
3/20/24,14:55:48,020,5,Test_simon1,62,recCO,208,535,1,+,0
3/20/24,14:55:48,020,5,Test_simon1,63,recCO,208,407,1,+,0
3/20/24,14:55:48,020,5,Test_simon1,64,diaIC,200,501,1,+,0
3/20/24,14:55:48,020,5,Test_simon1,65,diaIC,200,487,1,+,0
3/20/24,14:55:48,020,5,Test_simon1,66,recCO,208,705,1,+,0
3/20/24,14:55:48,020,5,Test_simon1,67,recIC,208,778,1,+,0
3/20/24,14:55:48,020,5,Test_simon1,68,diaCO,200,553,1,+,0
3/20/24,14:55:48,020,5,Test_simon1,69,recCO,208,409,1,+,0
3/20/24,14:55:48,020,5,Test_simon1,70,recIC,208,487,1,+,0
3/20/24,14:55:48,020,5,Test_simon1,71,diaCO,200,505,1,+,0
3/20/24,14:55:48,020,5,Test_simon1,72,diaIC,200,771,1,+,0
3/20/24,14:55:48,020,5,Test_simon1,73,diaIC,200,497,1,+,0
3/20/24,14:55:48,020,5,Test_simon1,74,recIC,208,491,1,+,0
3/20/24,14:55:48,020,5,Test_simon1,75,diaIC,200,750,1,+,0
3/20/24,14:55:48,020,5,Test_simon1,76,diaCO,200,501,1,+,0
3/20/24,14:55:48,020,5,Test_simon1,77,diaIC,200,512,1,+,0
3/20/24,14:55:48,020,5,Test_simon1,78,diaIC,200,433,1,+,0
3/20/24,14:55:48,020,5,Test_simon1,79,recIC,208,310,1,+,0
3/20/24,14:55:48,020,5,Test_simon1,80,recIC,208,448,1,+,0
3/20/24,14:55:48,020,6,SM1Test_Abr,1,SM1_Abr1,bagel,11433,0,Ocean,0
3/20/24,14:55:48,020,6,SM1Test_Abr,2,SM1_Abr2,lip,5430,1,Pet,0
3/20/24,14:55:48,020,6,SM1Test_Abr,3,SM1_Abr3,,7314,0,Shower,0
3/20/24,14:55:48,020,6,SM1Test_Abr,4,SM1_Abr4,crown,4212,1,Spaceship,0
3/20/24,14:55:48,020,6,SM1Test_Abr,5,SM1_Abr5,salad,3289,1,Leg,0
3/20/24,14:55:48,020,6,SM1Test_Abr,6,SM1_Abr6,,2754,0,Goalkeeper,0
3/20/24,14:55:48,020,6,SM1Test_Abr,7,SM1_Abr7,,2494,0,Scarf,0
3/20/24,14:55:48,020,6,SM1Test_Abr,8,SM1_Abr8,,1841,0,Atlas,0
3/20/24,14:55:48,020,6,SM1Test_Abr,9,SM1_Abr9,,5247,0,Tennis,0
3/20/24,14:55:48,020,6,SM1Test_Abr,10,SM1_Abr10,,3504,0,Bag,0
3/20/24,14:55:48,020,6,SM1Test_Abr,11,SM1_Abr11,,2029,0,Field,0
3/20/24,14:55:48,020,6,SM1Test_Abr,12,SM1_Abr12,biscuit,6067,1,Pool,0
3/20/24,14:55:48,020,6,SM1Test_Abr,13,SM1_Abr13,,2727,0,Towel,0
3/20/24,14:55:48,020,6,SM1Test_Abr,14,SM1_Abr14,,1868,0,Island,0
3/20/24,14:55:48,020,6,SM1Test_Abr,15,SM1_Abr15,,1923,0,Bicycle,0
3/20/24,14:55:48,020,6,SM1Test_Abr,16,SM1_Abr16,,1834,0,Chimney,0
3/20/24,14:55:48,020,6,SM1Test_Abr,17,SM1_Abr17,,2115,0,Acorn,0
3/20/24,14:55:48,020,6,SM1Test_Abr,18,SM1_Abr18,,1990,0,Mango,0
3/20/24,14:55:48,020,6,SM1Test_Abr,19,SM1_Abr19,,2954,0,Planet,0
3/20/24,14:55:48,020,6,SM1Test_Abr,20,SM1_Abr20,angel,4745,1,Bird,0
3/20/24,14:54:15,019,1,SM1Practice,1,achtung,0,1700,0,Attention!,0
3/20/24,14:54:15,019,1,SM1Practice,2,SM1_P_T1,0,2800,0,Chair,0
3/20/24,14:54:15,019,1,SM1Practice,3,SM1_P_T2,0,2800,0,Lamp,0
3/20/24,14:54:15,019,1,SM1Practice,4,SM1_P_T3,0,2800,0,Phone,0
3/20/24,14:54:15,019,2,SM1Practice_Abr,1,SM1_P_Abr1,lamp,7699,1,Carpet,0
3/20/24,14:54:15,019,2,SM1Practice_Abr,2,SM1_P_Abr2,window,3147,1,Chair,0
3/20/24,14:54:15,019,2,SM1Practice_Abr,3,SM1_P_Abr3,rock,2448,1,Phone,0
3/20/24,14:54:15,019,3,SM1Test,1,achtung,0,1700,0,Attention!,0
3/20/24,14:54:15,019,3,SM1Test,2,SM1_T1,0,2800,0,Angel,0
3/20/24,14:54:15,019,3,SM1Test,3,SM1_T2,0,2800,0,Marble,0
3/20/24,14:54:15,019,3,SM1Test,4,SM1_T3,0,2800,0,Leg,0
3/20/24,14:54:15,019,3,SM1Test,5,SM1_T4,0,2800,0,Wave,0
3/20/24,14:54:15,019,3,SM1Test,6,SM1_T5,0,2800,0,Atlas,0
3/20/24,14:54:15,019,3,SM1Test,7,SM1_T6,0,2800,0,Scarf,0
3/20/24,14:54:15,019,3,SM1Test,8,SM1_T7,0,2800,0,Stew,0
3/20/24,14:54:15,019,3,SM1Test,9,SM1_T8,0,2800,0,Goalkeeper,0
3/20/24,14:54:15,019,3,SM1Test,10,SM1_T9,0,2800,0,Cinema,0
3/20/24,14:54:15,019,3,SM1Test,11,SM1_T10,0,2800,0,Biscuit,0
3/20/24,14:54:15,019,3,SM1Test,12,SM1_T11,0,2800,0,Maple,0
3/20/24,14:54:15,019,3,SM1Test,13,SM1_T12,0,2800,0,Compass,0
3/20/24,14:54:15,019,3,SM1Test,14,SM1_T13,0,2800,0,Spaceship,0
3/20/24,14:54:15,019,3,SM1Test,15,SM1_T14,0,2800,0,Planet,0
3/20/24,14:54:15,019,3,SM1Test,16,SM1_T15,0,2800,0,Pet,0
3/20/24,14:54:15,019,3,SM1Test,17,SM1_T16,0,2800,0,Starfish,0
3/20/24,14:54:15,019,3,SM1Test,18,SM1_T17,0,2800,0,Island,0
3/20/24,14:54:15,019,3,SM1Test,19,SM1_T18,0,2800,0,Shower,0
3/20/24,14:54:15,019,3,SM1Test,20,SM1_T19,0,2800,0,Mango,0
3/20/24,14:54:15,019,3,SM1Test,21,SM1_T20,0,2800,0,Balloon,0
3/20/24,14:54:15,019,4,Pract_simon1,1,recCO,208,849,1,+,0
3/20/24,14:54:15,019,4,Pract_simon1,2,diaCO,200,580,1,+,0
3/20/24,14:54:15,019,4,Pract_simon1,3,recIC,208,811,1,+,0
3/20/24,14:54:15,019,4,Pract_simon1,4,diaCO,200,640,1,+,0
3/20/24,14:54:15,019,4,Pract_simon1,5,recIC,208,604,1,+,0
3/20/24,14:54:15,019,4,Pract_simon1,6,diaIC,200,705,1,+,0
3/20/24,14:54:15,019,5,Test_simon1,1,diaIC,200,598,1,+,0
3/20/24,14:54:15,019,5,Test_simon1,2,diaCO,200,428,1,+,0
3/20/24,14:54:15,019,5,Test_simon1,3,recIC,208,545,1,+,0
3/20/24,14:54:15,019,5,Test_simon1,4,recIC,208,490,1,+,0
3/20/24,14:54:15,019,5,Test_simon1,5,recCO,208,580,1,+,0
3/20/24,14:54:15,019,5,Test_simon1,6,diaIC,200,451,1,+,0
3/20/24,14:54:15,019,5,Test_simon1,7,recIC,208,439,1,+,0
3/20/24,14:54:15,019,5,Test_simon1,8,diaIC,200,387,1,+,0
3/20/24,14:54:15,019,5,Test_simon1,9,diaIC,200,561,1,+,0
3/20/24,14:54:15,019,5,Test_simon1,10,diaIC,200,561,1,+,0
3/20/24,14:54:15,019,5,Test_simon1,11,diaCO,200,457,1,+,0
3/20/24,14:54:15,019,5,Test_simon1,12,diaIC,200,540,1,+,0
3/20/24,14:54:15,019,5,Test_simon1,13,recIC,208,469,1,+,0
3/20/24,14:54:15,019,5,Test_simon1,14,recCO,208,432,1,+,0
3/20/24,14:54:15,019,5,Test_simon1,15,diaCO,200,486,1,+,0
3/20/24,14:54:15,019,5,Test_simon1,16,diaCO,200,425,1,+,0
3/20/24,14:54:15,019,5,Test_simon1,17,diaCO,200,486,1,+,0
3/20/24,14:54:15,019,5,Test_simon1,18,diaIC,200,552,1,+,0
3/20/24,14:54:15,019,5,Test_simon1,19,recCO,208,536,1,+,0
3/20/24,14:54:15,019,5,Test_simon1,20,recIC,208,457,1,+,0
3/20/24,14:54:15,019,5,Test_simon1,21,diaCO,200,509,1,+,0
3/20/24,14:54:15,019,5,Test_simon1,22,recCO,208,1046,1,+,0
3/20/24,14:54:15,019,5,Test_simon1,23,recCO,208,674,1,+,0
3/20/24,14:54:15,019,5,Test_simon1,24,recCO,208,676,1,+,0
3/20/24,14:54:15,019,5,Test_simon1,25,recCO,208,527,1,+,0
3/20/24,14:54:15,019,5,Test_simon1,26,recIC,208,544,1,+,0
3/20/24,14:54:15,019,5,Test_simon1,27,recCO,208,407,1,+,0
3/20/24,14:54:15,019,5,Test_simon1,28,recIC,208,445,1,+,0
3/20/24,14:54:15,019,5,Test_simon1,29,diaCO,200,578,1,+,0
3/20/24,14:54:15,019,5,Test_simon1,30,diaCO,200,376,1,+,0
3/20/24,14:54:15,019,5,Test_simon1,31,diaIC,200,728,1,+,0
3/20/24,14:54:15,019,5,Test_simon1,32,diaIC,200,464,1,+,0
3/20/24,14:54:15,019,5,Test_simon1,33,recIC,208,508,1,+,0
3/20/24,14:54:15,019,5,Test_simon1,34,recCO,208,422,1,+,0
3/20/24,14:54:15,019,5,Test_simon1,35,recIC,208,395,1,+,0
3/20/24,14:54:15,019,5,Test_simon1,36,recCO,208,464,1,+,0
3/20/24,14:54:15,019,5,Test_simon1,37,diaCO,200,596,1,+,0
3/20/24,14:54:15,019,5,Test_simon1,38,recIC,208,754,1,+,0
3/20/24,14:54:15,019,5,Test_simon1,39,diaCO,200,417,1,+,0
3/20/24,14:54:15,019,5,Test_simon1,40,recCO,208,623,1,+,0
3/20/24,14:54:15,019,5,Test_simon1,41,diaCO,200,524,1,+,0
3/20/24,14:54:15,019,5,Test_simon1,42,diaCO,200,341,1,+,0
3/20/24,14:54:15,019,5,Test_simon1,43,recCO,208,454,1,+,0
3/20/24,14:54:15,019,5,Test_simon1,44,recIC,208,641,1,+,0
3/20/24,14:54:15,019,5,Test_simon1,45,diaCO,200,590,1,+,0
3/20/24,14:54:15,019,5,Test_simon1,46,recIC,208,499,1,+,0
3/20/24,14:54:15,019,5,Test_simon1,47,recIC,208,517,1,+,0
3/20/24,14:54:15,019,5,Test_simon1,48,recIC,208,399,1,+,0
3/20/24,14:54:15,019,5,Test_simon1,49,recIC,208,373,1,+,0
3/20/24,14:54:15,019,5,Test_simon1,50,diaIC,200,421,1,+,0
3/20/24,14:54:15,019,5,Test_simon1,51,diaCO,200,434,1,+,0
3/20/24,14:54:15,019,5,Test_simon1,52,diaIC,200,511,1,+,0
3/20/24,14:54:15,019,5,Test_simon1,53,diaIC,200,489,1,+,0
3/20/24,14:54:15,019,5,Test_simon1,54,recIC,208,451,1,+,0
3/20/24,14:54:15,019,5,Test_simon1,55,diaIC,200,551,1,+,0
3/20/24,14:54:15,019,5,Test_simon1,56,recCO,208,519,1,+,0
3/20/24,14:54:15,019,5,Test_simon1,57,diaIC,208,448,0,+,0
3/20/24,14:54:15,019,5,Test_simon1,58,diaCO,200,637,1,+,0
3/20/24,14:54:15,019,5,Test_simon1,59,diaCO,200,393,1,+,0
3/20/24,14:54:15,019,5,Test_simon1,60,diaIC,200,559,1,+,0
3/20/24,14:54:15,019,5,Test_simon1,61,recCO,208,431,1,+,0
3/20/24,14:54:15,019,5,Test_simon1,62,recCO,208,380,1,+,0
3/20/24,14:54:15,019,5,Test_simon1,63,recCO,208,403,1,+,0
3/20/24,14:54:15,019,5,Test_simon1,64,diaIC,200,521,1,+,0
3/20/24,14:54:15,019,5,Test_simon1,65,diaIC,200,401,1,+,0
3/20/24,14:54:15,019,5,Test_simon1,66,recCO,208,456,1,+,0
3/20/24,14:54:15,019,5,Test_simon1,67,recIC,208,508,1,+,0
3/20/24,14:54:15,019,5,Test_simon1,68,diaCO,200,373,1,+,0
3/20/24,14:54:15,019,5,Test_simon1,69,recCO,208,509,1,+,0
3/20/24,14:54:15,019,5,Test_simon1,70,recIC,208,414,1,+,0
3/20/24,14:54:15,019,5,Test_simon1,71,diaCO,200,340,1,+,0
3/20/24,14:54:15,019,5,Test_simon1,72,diaIC,200,1029,1,+,0
3/20/24,14:54:15,019,5,Test_simon1,73,diaIC,200,417,1,+,0
3/20/24,14:54:15,019,5,Test_simon1,74,recIC,208,471,1,+,0
3/20/24,14:54:15,019,5,Test_simon1,75,diaIC,200,650,1,+,0
3/20/24,14:54:15,019,5,Test_simon1,76,diaCO,200,301,1,+,0
3/20/24,14:54:15,019,5,Test_simon1,77,diaIC,200,519,1,+,0
3/20/24,14:54:15,019,5,Test_simon1,78,diaIC,200,505,1,+,0
3/20/24,14:54:15,019,5,Test_simon1,79,recIC,208,515,1,+,0
3/20/24,14:54:15,019,5,Test_simon1,80,recIC,208,612,1,+,0
3/20/24,14:54:15,019,6,SM1Test_Abr,1,SM1_Abr1,,13115,0,Ocean,0
3/20/24,14:54:15,019,6,SM1Test_Abr,2,SM1_Abr2,lip,5300,1,Pet,0
3/20/24,14:54:15,019,6,SM1Test_Abr,3,SM1_Abr3,,5455,0,Shower,0
3/20/24,14:54:15,019,6,SM1Test_Abr,4,SM1_Abr4,towel,5986,0,Spaceship,0
3/20/24,14:54:15,019,6,SM1Test_Abr,5,SM1_Abr5,lamp,18559,0,Leg,0
3/20/24,14:54:15,019,6,SM1Test_Abr,6,SM1_Abr6,wave,9350,0,Goalkeeper,0
3/20/24,14:54:15,019,6,SM1Test_Abr,7,SM1_Abr7,goal,20146,0,Scarf,0
3/20/24,14:54:15,019,6,SM1Test_Abr,8,SM1_Abr8,ocean,5178,0,Atlas,0
