date,time,subject,blocknum,blockcode,trialnum,trialcode,response,correct,latency,stimulus1
3/13/24,16:06:52,005,1,SMf1Practice,1,achtung,0,0,1700,Attention!
3/13/24,16:06:52,005,1,SMf1Practice,2,SMf1_P_T1,0,0,2800,a
3/13/24,16:06:52,005,1,SMf1Practice,3,SMf1_P_T2,0,0,2800,i
3/13/24,16:06:52,005,1,SMf1Practice,4,SMf1_P_T3,0,0,2800,u
3/13/24,16:06:52,005,2,SMf1Practice_Abr,1,SMf1_P_Abr1,SMf_Pos9,1,5777,
3/13/24,16:06:52,005,2,SMf1Practice_Abr,2,SMf1_P_Abr2,i12,1,6441,u
3/13/24,16:06:52,005,2,SMf1Practice_Abr,3,SMf1_P_Abr3,SMf_Pos12,1,1645,
3/13/24,16:06:52,005,3,SMf1,1,achtung,0,0,1700,Attention!
3/13/24,16:06:52,005,3,SMf1,2,SMf1_T1,0,0,2800,b
3/13/24,16:06:52,005,3,SMf1,3,SMf1_T2,0,0,2800,m
3/13/24,16:06:52,005,3,SMf1,4,SMf1_T3,0,0,2800,k
3/13/24,16:06:52,005,3,SMf1,5,SMf1_T4,0,0,2800,c
3/13/24,16:06:52,005,3,SMf1,6,SMf1_T5,0,0,2800,y
3/13/24,16:06:52,005,3,SMf1,7,SMf1_T6,0,0,2800,h
3/13/24,16:06:52,005,3,SMf1,8,SMf1_T7,0,0,2800,x
3/13/24,16:06:52,005,3,SMf1,9,SMf1_T8,0,0,2800,p
3/13/24,16:06:52,005,3,SMf1,10,SMf1_T9,0,0,2800,t
3/13/24,16:06:52,005,3,SMf1,11,SMf1_T10,0,0,2800,d
3/13/24,16:06:52,005,3,SMf1,12,SMf1_T11,0,0,2800,q
3/13/24,16:06:52,005,3,SMf1,13,SMf1_T12,0,0,2800,v
3/13/24,16:06:52,005,4,prac_nc,1,blank_1st,0,0,1500,0
3/13/24,16:06:52,005,4,prac_nc,2,pract_nc_incorrect,30,1,7529,4821459            4814259
3/13/24,16:06:52,005,4,prac_nc,3,blank8,0,0,1376,0
3/13/24,16:06:52,005,4,prac_nc,4,pract_nc_incorrect,30,1,3418,658331            656331
3/13/24,16:06:52,005,4,prac_nc,5,blank2,0,0,671,0
3/13/24,16:06:52,005,4,prac_nc,6,pract_nc_incorrect,30,1,3805,73845            73855
3/13/24,16:06:52,005,4,prac_nc,7,blank1,0,0,553,0
3/13/24,16:06:52,005,4,prac_nc,8,pract_nc_correct,38,1,3174,438            438
3/13/24,16:06:52,005,4,prac_nc,9,blank6,0,0,1141,0
3/13/24,16:06:52,005,4,prac_nc,10,pract_nc_correct,38,1,2048,659            659
3/13/24,16:06:52,005,4,prac_nc,11,blank7,0,0,1259,0
3/13/24,16:06:52,005,4,prac_nc,12,pract_nc_correct,38,1,2750,1624            1624
3/13/24,16:06:52,005,5,test_nc1,1,blank_1st,0,0,1500,0
3/13/24,16:06:52,005,5,test_nc1,2,numb_comp1,38,0,3257,84470088            84470088
3/13/24,16:06:52,005,5,test_nc1,3,blank7,0,0,1259,0
3/13/24,16:06:52,005,5,test_nc1,4,numb_comp1,30,0,2509,822813            821713
3/13/24,16:06:52,005,5,test_nc1,5,blank6,0,0,1141,0
3/13/24,16:06:52,005,5,test_nc1,6,numb_comp1,38,0,2750,167390            167390
3/13/24,16:06:52,005,5,test_nc1,7,blank8,0,0,1376,0
3/13/24,16:06:52,005,5,test_nc1,8,numb_comp1,38,0,4257,3373597617            3373597617
3/13/24,16:06:52,005,5,test_nc1,9,blank9,0,0,1494,0
3/13/24,16:06:52,005,5,test_nc1,10,numb_comp1,38,0,2713,869            869
3/13/24,16:06:52,005,5,test_nc1,11,blank3,0,0,788,0
3/13/24,16:06:52,005,5,test_nc1,12,numb_comp1,38,0,4472,946154158            946154158
3/13/24,16:06:52,005,5,test_nc1,13,blank6,0,0,1141,0
3/13/24,16:06:52,005,5,test_nc1,14,numb_comp1,30,0,7701,744597632877            744598742877
3/13/24,16:06:52,005,5,test_nc1,15,blank8,0,0,1376,0
3/13/24,16:06:52,005,5,test_nc1,16,numb_comp1,30,0,3234,7433615            7432515
3/13/24,16:06:52,005,5,test_nc1,17,blank6,0,0,1141,0
3/13/24,16:06:52,005,5,test_nc1,18,numb_comp1,30,0,2836,76672            76572
3/13/24,16:06:52,005,5,test_nc1,19,blank5,0,0,1024,0
3/13/24,16:06:52,005,5,test_nc1,20,numb_comp1,38,0,3555,63038506            63038506
3/13/24,16:06:52,005,5,test_nc1,21,blank4,0,0,906,0
3/13/24,16:06:52,005,5,test_nc1,22,numb_comp1,38,0,6585,338242381215            338242381215
3/13/24,16:06:52,005,5,test_nc1,23,blank10,0,0,1612,0
3/13/24,16:06:52,005,5,test_nc1,24,numb_comp1,30,0,3955,17093622            17092522
3/13/24,16:06:52,005,5,test_nc1,25,blank7,0,0,1259,0
3/13/24,16:06:52,005,5,test_nc1,26,numb_comp1,30,0,3145,89994            89984
3/13/24,16:06:52,005,5,test_nc1,27,blank4,0,0,906,0
3/13/24,16:06:52,005,5,test_nc1,28,numb_comp1,30,0,2449,8946221            8946111
3/13/24,16:06:52,005,5,test_nc1,29,blank1,0,0,553,0
3/13/24,16:06:52,005,5,test_nc1,30,numb_comp1,30,0,1732,411205238            412315238
3/13/24,16:06:52,005,5,test_nc1,31,blank3,0,0,788,0
3/13/24,16:06:52,005,5,test_nc1,32,numb_comp1,30,0,1316,160            161
3/13/24,16:06:52,005,5,test_nc1,33,blank1,0,0,553,0
3/13/24,16:06:52,005,5,test_nc1,34,numb_comp1,38,0,5376,96680137317            96680137317
3/13/24,16:06:52,005,5,test_nc1,35,blank4,0,0,906,0
3/13/24,16:06:52,005,5,test_nc1,36,numb_comp1,38,0,2417,100453190            100453190
3/13/24,16:06:52,005,5,test_nc1,37,blank7,0,0,1259,0
3/13/24,16:06:52,005,5,test_nc1,38,numb_comp1,30,0,4097,3633616033            3633627133
3/13/24,16:06:52,005,5,test_nc1,39,blank9,0,0,1494,0
3/13/24,16:06:52,005,5,test_nc1,40,numb_comp1,38,0,5984,674722052809            674722052809
3/13/24,16:06:52,005,5,test_nc1,41,blank5,0,0,1024,0
3/13/24,16:06:52,005,5,test_nc1,42,numb_comp1,30,0,2939,4803720325            4802610325
3/13/24,16:06:52,005,5,test_nc1,43,blank8,0,0,1376,0
3/13/24,16:06:52,005,5,test_nc1,44,numb_comp1,30,0,3616,98514271399            98403271399
3/13/24,16:06:52,005,5,test_nc1,45,blank9,0,0,1494,0
3/13/24,16:06:52,005,5,test_nc1,46,numb_comp1,38,0,4930,4194957            4194957
3/13/24,16:06:52,005,5,test_nc1,47,blank7,0,0,1259,0
3/13/24,16:06:52,005,5,test_nc1,48,numb_comp1,38,0,3168,79948            79948
3/13/24,16:06:52,005,5,test_nc1,49,blank9,0,0,1494,0
3/13/24,16:06:52,005,5,test_nc1,50,numb_comp1,30,0,1463,754            755
3/13/24,16:06:52,005,5,test_nc1,51,blank2,0,0,671,0
3/13/24,16:06:52,005,5,test_nc1,52,numb_comp1,30,0,2263,6841            6851
3/13/24,16:06:52,005,5,test_nc1,53,blank10,0,0,1612,0
3/13/24,16:06:52,005,5,test_nc1,54,numb_comp1,30,0,5302,951448201163            951448201173
3/13/24,16:06:52,005,5,test_nc1,55,blank3,0,0,788,0
3/13/24,16:06:52,005,5,test_nc1,56,numb_comp1,38,0,2536,8662            8662
3/13/24,16:06:52,005,5,test_nc1,57,blank10,0,0,1612,0
3/13/24,16:06:52,005,5,test_nc1,58,numb_comp1,38,0,2204,851            851
3/13/24,16:06:52,005,5,test_nc1,59,blank2,0,0,671,0
3/13/24,16:06:52,005,5,test_nc1,60,numb_comp1,38,0,8221,63032049608            63020949608
3/13/24,16:06:52,005,5,test_nc1,61,blank3,0,0,788,0
3/13/24,16:06:52,005,5,test_nc1,62,numb_comp1,38,0,5211,7379311            7379311
3/13/24,16:06:52,005,5,test_nc1,63,blank10,0,0,1612,0
3/13/24,16:06:52,005,5,test_nc1,64,numb_comp1,30,0,2502,996663            996553
3/13/24,16:06:52,005,5,test_nc1,65,blank1,0,0,553,0
3/13/24,16:06:52,005,5,test_nc1,66,numb_comp1,30,0,4543,21153530            21153420
3/13/24,16:06:52,005,5,test_nc1,67,blank5,0,0,1024,0
3/13/24,16:06:52,005,5,test_nc1,68,numb_comp1,38,0,2335,9013            9013
3/13/24,16:06:52,005,5,test_nc1,69,blank2,0,0,671,0
3/13/24,16:06:52,005,5,test_nc1,70,numb_comp1,38,0,4954,92389075844            92389075844
3/13/24,16:06:52,005,5,test_nc1,71,blank5,0,0,1024,0
3/13/24,16:06:52,005,5,test_nc1,72,numb_comp1,30,0,5017,6318            6418
3/13/24,16:06:52,005,5,test_nc1,73,blank1,0,0,553,0
3/13/24,16:06:52,005,5,test_nc1,74,numb_comp1,38,0,2217,62056            62056
3/13/24,16:06:52,005,5,test_nc1,75,blank4,0,0,906,0
3/13/24,16:06:52,005,5,test_nc1,76,numb_comp1,30,0,4152,168659794            168660904
3/13/24,16:06:52,005,5,test_nc1,77,blank6,0,0,1141,0
3/13/24,16:06:52,005,5,test_nc1,78,numb_comp1,38,0,3867,658697            658697
3/13/24,16:06:52,005,5,test_nc1,79,blank2,0,0,671,0
3/13/24,16:06:52,005,5,test_nc1,80,numb_comp1,38,0,5230,2243565304            2243565304
3/13/24,16:06:52,005,6,test_nc2,1,blank_1st,0,0,1500,0
3/13/24,16:06:52,005,6,test_nc2,2,numb_comp2,30,0,3162,610459            611559
3/13/24,16:06:52,005,6,test_nc2,3,blank8,0,0,1376,0
3/13/24,16:06:52,005,6,test_nc2,4,numb_comp2,38,0,5364,75538            75538
3/13/24,16:06:52,005,6,test_nc2,5,blank9,0,0,1494,0
3/13/24,16:06:52,005,6,test_nc2,6,numb_comp2,38,0,2198,2089            2089
3/13/24,16:06:52,005,6,test_nc2,7,blank7,0,0,1259,0
3/13/24,16:06:52,005,6,test_nc2,8,numb_comp2,38,0,2983,155121            155121
3/13/24,16:06:52,005,6,test_nc2,9,blank6,0,0,1141,0
3/13/24,16:06:52,005,6,test_nc2,10,numb_comp2,38,0,2708,1981094            1981094
3/13/24,16:06:52,005,6,test_nc2,11,blank6,0,0,1141,0
3/13/24,16:06:52,005,6,test_nc2,12,numb_comp2,30,0,3708,69960347            69960457
3/13/24,16:06:52,005,6,test_nc2,13,blank4,0,0,906,0
3/13/24,16:06:52,005,6,test_nc2,14,numb_comp2,30,0,4939,29792117073            29792105973
3/13/24,16:06:52,005,6,test_nc2,15,blank8,0,0,1376,0
3/13/24,16:06:52,005,6,test_nc2,16,numb_comp2,38,0,2812,278233            278233
3/13/24,16:06:52,005,6,test_nc2,17,blank3,0,0,788,0
3/13/24,16:06:52,005,6,test_nc2,18,numb_comp2,30,0,2511,24068            24168
3/13/24,16:06:52,005,6,test_nc2,19,blank5,0,0,1024,0
3/13/24,16:06:52,005,6,test_nc2,20,numb_comp2,38,0,4725,4215469941            4215469941
3/13/24,16:06:52,005,6,test_nc2,21,blank4,0,0,906,0
3/13/24,16:06:52,005,6,test_nc2,22,numb_comp2,38,0,7313,897529167144            897529167144
3/13/24,16:06:52,005,6,test_nc2,23,blank10,0,0,1612,0
3/13/24,16:06:52,005,6,test_nc2,24,numb_comp2,38,0,6764,391317180            391317180
3/13/24,16:06:52,005,6,test_nc2,25,blank1,0,0,553,0
3/13/24,16:06:52,005,6,test_nc2,26,numb_comp2,30,0,2346,696            695
3/13/24,16:06:52,005,6,test_nc2,27,blank2,0,0,671,0
3/13/24,16:06:52,005,6,test_nc2,28,numb_comp2,30,0,3148,9450584455            9461684455
3/13/24,16:06:52,005,6,test_nc2,29,blank5,0,0,1024,0
3/13/24,16:06:52,005,6,test_nc2,30,numb_comp2,30,0,3583,619165564            619164454
3/13/24,16:06:52,005,6,test_nc2,31,blank6,0,0,1141,0
3/13/24,16:06:52,005,6,test_nc2,32,numb_comp2,38,0,3723,762115347            762115347
3/13/24,16:06:52,005,6,test_nc2,33,blank1,0,0,553,0
3/13/24,16:06:52,005,6,test_nc2,34,numb_comp2,30,0,3329,8197739            8197849
3/13/24,16:06:52,005,6,test_nc2,35,blank9,0,0,1494,0
3/13/24,16:06:52,005,6,test_nc2,36,numb_comp2,38,0,3455,92739            92739
3/13/24,16:06:52,005,6,test_nc2,37,blank7,0,0,1259,0
3/13/24,16:06:52,005,6,test_nc2,38,numb_comp2,30,0,3219,55824            55834
3/13/24,16:06:52,005,6,test_nc2,39,blank2,0,0,671,0
3/13/24,16:06:52,005,6,test_nc2,40,numb_comp2,38,0,4809,6168121946            6168121946
3/13/24,16:06:52,005,6,test_nc2,41,blank7,0,0,1259,0
3/13/24,16:06:52,005,6,test_nc2,42,numb_comp2,30,0,2076,1048            1038
3/13/24,16:06:52,005,6,test_nc2,43,blank1,0,0,553,0
3/13/24,16:06:52,005,6,test_nc2,44,numb_comp2,38,0,7046,16761296358            16761296358
3/13/24,16:06:52,005,6,test_nc2,45,blank6,0,0,1141,0
3/13/24,16:06:52,005,6,test_nc2,46,numb_comp2,30,0,4752,628605363062            628605473062
3/13/24,16:06:52,005,6,test_nc2,47,blank10,0,0,1612,0
3/13/24,16:06:52,005,6,test_nc2,48,numb_comp2,30,0,3263,657973458            657962358
3/13/24,16:06:52,005,6,test_nc2,49,blank4,0,0,906,0
3/13/24,16:06:52,005,6,test_nc2,50,numb_comp2,38,0,5465,74246568316            74246568316
3/13/24,16:06:52,005,6,test_nc2,51,blank4,0,0,906,0
3/13/24,16:06:52,005,6,test_nc2,52,numb_comp2,38,0,1351,482            482
3/13/24,16:06:52,005,6,test_nc2,53,blank5,0,0,1024,0
3/13/24,16:06:52,005,6,test_nc2,54,numb_comp2,30,0,8853,904679492412            904679492402
3/13/24,16:06:52,005,6,test_nc2,55,blank8,0,0,1376,0
3/13/24,16:06:52,005,6,test_nc2,56,numb_comp2,38,0,3201,18676209            18676209
3/13/24,16:06:52,005,6,test_nc2,57,blank8,0,0,1376,0
3/13/24,16:06:52,005,6,test_nc2,58,numb_comp2,30,0,2738,87791454            87792554
3/13/24,16:06:52,005,6,test_nc2,59,blank7,0,0,1259,0
3/13/24,16:06:52,005,6,test_nc2,60,numb_comp2,38,0,1684,146            146
3/13/24,16:06:52,005,6,test_nc2,61,blank2,0,0,671,0
3/13/24,16:06:52,005,6,test_nc2,62,numb_comp2,30,0,2331,444008            444118
3/13/24,16:06:52,005,6,test_nc2,63,blank9,0,0,1494,0
3/13/24,16:06:52,005,6,test_nc2,64,numb_comp2,38,0,4365,22308208            22308208
3/13/24,16:06:52,005,6,test_nc2,65,blank2,0,0,671,0
3/13/24,16:06:52,005,6,test_nc2,66,numb_comp2,38,0,2883,4334416            4334416
3/13/24,16:06:52,005,6,test_nc2,67,blank9,0,0,1494,0
3/13/24,16:06:52,005,6,test_nc2,68,numb_comp2,30,0,3053,7648791            7649891
3/13/24,16:06:52,005,6,test_nc2,69,blank1,0,0,553,0
3/13/24,16:06:52,005,6,test_nc2,70,numb_comp2,30,0,1615,802            801
3/13/24,16:06:52,005,6,test_nc2,71,blank3,0,0,788,0
3/13/24,16:06:52,005,6,test_nc2,72,numb_comp2,30,0,2580,3980            3880
3/13/24,16:06:52,005,6,test_nc2,73,blank5,0,0,1024,0
3/13/24,16:06:52,005,6,test_nc2,74,numb_comp2,30,0,2695,6875766673            6876876673
3/13/24,16:06:52,005,6,test_nc2,75,blank10,0,0,1612,0
3/13/24,16:06:52,005,6,test_nc2,76,numb_comp2,38,0,2508,7321            7321
3/13/24,16:06:52,005,6,test_nc2,77,blank10,0,0,1612,0
3/13/24,16:06:52,005,6,test_nc2,78,numb_comp2,30,0,2256,58891903224            59002903224
3/13/24,16:06:52,005,6,test_nc2,79,blank3,0,0,788,0
3/13/24,16:06:52,005,6,test_nc2,80,numb_comp2,38,0,6442,656607640290            656607640290
3/13/24,16:06:52,005,7,SMf1_Abr,1,SMf_Abr12,SMf_Pos6,1,5427,
3/13/24,16:06:52,005,7,SMf1_Abr,2,SMf_Abr2,SMf_Pos13,0,5271,
3/13/24,16:06:52,005,7,SMf1_Abr,3,SMf_Abr4,c11,1,14889,b
3/13/24,16:06:52,005,7,SMf1_Abr,4,SMf_Abr3,k14,1,6936,b
3/13/24,16:06:52,005,7,SMf1_Abr,5,SMf_Abr8,SMf_Pos5,1,1733,
3/13/24,16:06:52,005,7,SMf1_Abr,6,SMf_Abr6,p16,0,6964,b
3/13/24,16:06:52,005,7,SMf1_Abr,7,SMf_Abr1,q17,0,13007,b
3/13/24,16:06:52,005,7,SMf1_Abr,8,SMf_Abr10,SMf_Pos2,0,3612,
3/13/24,16:06:52,005,7,SMf1_Abr,9,SMf_Abr11,SMf_Pos1,0,5533,
3/13/24,16:06:52,005,7,SMf1_Abr,10,SMf_Abr9,h13,0,7205,b
3/13/24,16:06:52,005,7,SMf1_Abr,11,SMf_Abr7,h13,0,503,b
3/13/24,16:06:52,005,7,SMf1_Abr,12,SMf_Abr5,SMf_Pos8,1,6409,
3/14/24,16:22:57,006,1,SMf1Practice,1,achtung,0,0,1700,Attention!
3/14/24,16:22:57,006,1,SMf1Practice,2,SMf1_P_T1,0,0,2800,a
3/14/24,16:22:57,006,1,SMf1Practice,3,SMf1_P_T2,0,0,2800,i
3/14/24,16:22:57,006,1,SMf1Practice,4,SMf1_P_T3,0,0,2800,u
3/14/24,16:22:57,006,2,SMf1Practice_Abr,1,SMf1_P_Abr1,SMf_Pos9,1,1603,
3/14/24,16:22:57,006,2,SMf1Practice_Abr,2,SMf1_P_Abr2,i12,1,4090,u
3/14/24,16:22:57,006,2,SMf1Practice_Abr,3,SMf1_P_Abr3,SMf_Pos12,1,1866,
3/14/24,16:22:57,006,3,SMf1,1,achtung,0,0,1700,Attention!
3/14/24,16:22:57,006,3,SMf1,2,SMf1_T1,0,0,2800,b
3/14/24,16:22:57,006,3,SMf1,3,SMf1_T2,0,0,2800,m
3/14/24,16:22:57,006,3,SMf1,4,SMf1_T3,0,0,2800,k
3/14/24,16:22:57,006,3,SMf1,5,SMf1_T4,0,0,2800,c
3/14/24,16:22:57,006,3,SMf1,6,SMf1_T5,0,0,2800,y
3/14/24,16:22:57,006,3,SMf1,7,SMf1_T6,0,0,2800,h
3/14/24,16:22:57,006,3,SMf1,8,SMf1_T7,0,0,2800,x
3/14/24,16:22:57,006,3,SMf1,9,SMf1_T8,0,0,2800,p
3/14/24,16:22:57,006,3,SMf1,10,SMf1_T9,0,0,2800,t
3/14/24,16:22:57,006,3,SMf1,11,SMf1_T10,0,0,2800,d
3/14/24,16:22:57,006,3,SMf1,12,SMf1_T11,0,0,2800,q
3/14/24,16:22:57,006,3,SMf1,13,SMf1_T12,0,0,2800,v
3/14/24,16:22:57,006,4,prac_nc,1,blank_1st,0,0,1500,0
3/14/24,16:22:57,006,4,prac_nc,2,pract_nc_correct,38,1,2716,438            438
3/14/24,16:22:57,006,4,prac_nc,3,blank4,0,0,906,0
3/14/24,16:22:57,006,4,prac_nc,4,pract_nc_correct,38,1,828,659            659
3/14/24,16:22:57,006,4,prac_nc,5,blank2,0,0,671,0
3/14/24,16:22:57,006,4,prac_nc,6,pract_nc_incorrect,30,1,2860,4821459            4814259
3/14/24,16:22:57,006,4,prac_nc,7,blank1,0,0,553,0
3/14/24,16:22:57,006,4,prac_nc,8,pract_nc_correct,38,1,1220,1624            1624
3/14/24,16:22:57,006,4,prac_nc,9,blank3,0,0,788,0
3/14/24,16:22:57,006,4,prac_nc,10,pract_nc_incorrect,30,1,2328,658331            656331
3/14/24,16:22:57,006,4,prac_nc,11,blank6,0,0,1141,0
3/14/24,16:22:57,006,4,prac_nc,12,pract_nc_incorrect,30,1,2038,73845            73855
3/14/24,16:22:57,006,5,test_nc1,1,blank_1st,0,0,1500,0
3/14/24,16:22:57,006,5,test_nc1,2,numb_comp1,30,0,3071,84470088            84470088
3/14/24,16:22:57,006,5,test_nc1,3,blank5,0,0,1024,0
3/14/24,16:22:57,006,5,test_nc1,4,numb_comp1,30,0,1709,822813            821713
3/14/24,16:22:57,006,5,test_nc1,5,blank8,0,0,1376,0
3/14/24,16:22:57,006,5,test_nc1,6,numb_comp1,38,0,2013,167390            167390
3/14/24,16:22:57,006,5,test_nc1,7,blank10,0,0,1612,0
3/14/24,16:22:57,006,5,test_nc1,8,numb_comp1,38,0,4583,3373597617            3373597617
3/14/24,16:22:57,006,5,test_nc1,9,blank7,0,0,1259,0
3/14/24,16:22:57,006,5,test_nc1,10,numb_comp1,38,0,739,869            869
3/14/24,16:22:57,006,5,test_nc1,11,blank9,0,0,1494,0
3/14/24,16:22:57,006,5,test_nc1,12,numb_comp1,38,0,2912,946154158            946154158
3/14/24,16:22:57,006,5,test_nc1,13,blank5,0,0,1024,0
3/14/24,16:22:57,006,5,test_nc1,14,numb_comp1,30,0,2435,744597632877            744598742877
3/14/24,16:22:57,006,5,test_nc1,15,blank5,0,0,1024,0
3/14/24,16:22:57,006,5,test_nc1,16,numb_comp1,30,0,2436,7433615            7432515
3/14/24,16:22:57,006,5,test_nc1,17,blank9,0,0,1494,0
3/14/24,16:22:57,006,5,test_nc1,18,numb_comp1,30,0,1472,76672            76572
3/14/24,16:22:57,006,5,test_nc1,19,blank7,0,0,1259,0
3/14/24,16:22:57,006,5,test_nc1,20,numb_comp1,38,0,3096,63038506            63038506
3/14/24,16:22:57,006,5,test_nc1,21,blank1,0,0,553,0
3/14/24,16:22:57,006,5,test_nc1,22,numb_comp1,38,0,4352,338242381215            338242381215
3/14/24,16:22:57,006,5,test_nc1,23,blank4,0,0,906,0
3/14/24,16:22:57,006,5,test_nc1,24,numb_comp1,30,0,2694,17093622            17092522
3/14/24,16:22:57,006,5,test_nc1,25,blank7,0,0,1259,0
3/14/24,16:22:57,006,5,test_nc1,26,numb_comp1,38,0,1385,89994            89984
3/14/24,16:22:57,006,5,test_nc1,27,blank1,0,0,553,0
3/14/24,16:22:57,006,5,test_nc1,28,numb_comp1,30,0,1433,8946221            8946111
3/14/24,16:22:57,006,5,test_nc1,29,blank2,0,0,671,0
3/14/24,16:22:57,006,5,test_nc1,30,numb_comp1,30,0,1690,411205238            412315238
3/14/24,16:22:57,006,5,test_nc1,31,blank3,0,0,788,0
3/14/24,16:22:57,006,5,test_nc1,32,numb_comp1,30,0,1012,160            161
3/14/24,16:22:57,006,5,test_nc1,33,blank3,0,0,788,0
3/14/24,16:22:57,006,5,test_nc1,34,numb_comp1,38,0,3690,96680137317            96680137317
3/14/24,16:22:57,006,5,test_nc1,35,blank8,0,0,1376,0
3/14/24,16:22:57,006,5,test_nc1,36,numb_comp1,38,0,5927,100453190            100453190
3/14/24,16:22:57,006,5,test_nc1,37,blank1,0,0,553,0
3/14/24,16:22:57,006,5,test_nc1,38,numb_comp1,30,0,2312,3633616033            3633627133
3/14/24,16:22:57,006,5,test_nc1,39,blank3,0,0,788,0
3/14/24,16:22:57,006,5,test_nc1,40,numb_comp1,38,0,5295,674722052809            674722052809
3/14/24,16:22:57,006,5,test_nc1,41,blank10,0,0,1612,0
3/14/24,16:22:57,006,5,test_nc1,42,numb_comp1,30,0,4103,4803720325            4802610325
3/14/24,16:22:57,006,5,test_nc1,43,blank2,0,0,671,0
3/14/24,16:22:57,006,5,test_nc1,44,numb_comp1,30,0,6297,98514271399            98403271399
3/14/24,16:22:57,006,5,test_nc1,45,blank9,0,0,1494,0
3/14/24,16:22:57,006,5,test_nc1,46,numb_comp1,38,0,3130,4194957            4194957
3/14/24,16:22:57,006,5,test_nc1,47,blank3,0,0,788,0
3/14/24,16:22:57,006,5,test_nc1,48,numb_comp1,38,0,2832,79948            79948
3/14/24,16:22:57,006,5,test_nc1,49,blank7,0,0,1259,0
3/14/24,16:22:57,006,5,test_nc1,50,numb_comp1,30,0,902,754            755
3/14/24,16:22:57,006,5,test_nc1,51,blank2,0,0,671,0
3/14/24,16:22:57,006,5,test_nc1,52,numb_comp1,30,0,1534,6841            6851
3/14/24,16:22:57,006,5,test_nc1,53,blank8,0,0,1376,0
3/14/24,16:22:57,006,5,test_nc1,54,numb_comp1,30,0,4269,951448201163            951448201173
3/14/24,16:22:57,006,5,test_nc1,55,blank4,0,0,906,0
3/14/24,16:22:57,006,5,test_nc1,56,numb_comp1,38,0,1197,8662            8662
3/14/24,16:22:57,006,5,test_nc1,57,blank2,0,0,671,0
3/14/24,16:22:57,006,5,test_nc1,58,numb_comp1,38,0,801,851            851
3/14/24,16:22:57,006,5,test_nc1,59,blank1,0,0,553,0
3/14/24,16:22:57,006,5,test_nc1,60,numb_comp1,30,0,3033,63032049608            63020949608
3/14/24,16:22:57,006,5,test_nc1,61,blank4,0,0,906,0
3/14/24,16:22:57,006,5,test_nc1,62,numb_comp1,38,0,2390,7379311            7379311
3/14/24,16:22:57,006,5,test_nc1,63,blank9,0,0,1494,0
3/14/24,16:22:57,006,5,test_nc1,64,numb_comp1,30,0,1324,996663            996553
3/14/24,16:22:57,006,5,test_nc1,65,blank6,0,0,1141,0
3/14/24,16:22:57,006,5,test_nc1,66,numb_comp1,30,0,2775,21153530            21153420
3/14/24,16:22:57,006,5,test_nc1,67,blank5,0,0,1024,0
3/14/24,16:22:57,006,5,test_nc1,68,numb_comp1,38,0,5753,9013            9013
3/14/24,16:22:57,006,5,test_nc1,69,blank6,0,0,1141,0
3/14/24,16:22:57,006,5,test_nc1,70,numb_comp1,38,0,3961,92389075844            92389075844
3/14/24,16:22:57,006,5,test_nc1,71,blank8,0,0,1376,0
3/14/24,16:22:57,006,5,test_nc1,72,numb_comp1,30,0,946,6318            6418
3/14/24,16:22:57,006,5,test_nc1,73,blank10,0,0,1612,0
3/14/24,16:22:57,006,5,test_nc1,74,numb_comp1,38,0,1697,62056            62056
3/14/24,16:22:57,006,5,test_nc1,75,blank4,0,0,906,0
3/14/24,16:22:57,006,5,test_nc1,76,numb_comp1,30,0,2398,168659794            168660904
3/14/24,16:22:57,006,5,test_nc1,77,blank6,0,0,1141,0
3/14/24,16:22:57,006,5,test_nc1,78,numb_comp1,38,0,2316,658697            658697
3/14/24,16:22:57,006,5,test_nc1,79,blank10,0,0,1612,0
3/14/24,16:22:57,006,5,test_nc1,80,numb_comp1,38,0,7121,2243565304            2243565304
3/14/24,16:22:57,006,6,test_nc2,1,blank_1st,0,0,1500,0
3/14/24,16:22:57,006,6,test_nc2,2,numb_comp2,30,0,1307,610459            611559
3/14/24,16:22:57,006,6,test_nc2,3,blank6,0,0,1141,0
3/14/24,16:22:57,006,6,test_nc2,4,numb_comp2,38,0,3527,75538            75538
3/14/24,16:22:57,006,6,test_nc2,5,blank7,0,0,1259,0
3/14/24,16:22:57,006,6,test_nc2,6,numb_comp2,38,0,1096,2089            2089
3/14/24,16:22:57,006,6,test_nc2,7,blank7,0,0,1259,0
3/14/24,16:22:57,006,6,test_nc2,8,numb_comp2,38,0,1407,155121            155121
3/14/24,16:22:57,006,6,test_nc2,9,blank7,0,0,1259,0
3/14/24,16:22:57,006,6,test_nc2,10,numb_comp2,38,0,1433,1981094            1981094
3/14/24,16:22:57,006,6,test_nc2,11,blank10,0,0,1612,0
3/14/24,16:22:57,006,6,test_nc2,12,numb_comp2,30,0,1787,69960347            69960457
3/14/24,16:22:57,006,6,test_nc2,13,blank7,0,0,1259,0
3/14/24,16:22:57,006,6,test_nc2,14,numb_comp2,30,0,5436,29792117073            29792105973
3/14/24,16:22:57,006,6,test_nc2,15,blank5,0,0,1024,0
3/14/24,16:22:57,006,6,test_nc2,16,numb_comp2,30,0,2479,278233            278233
3/14/24,16:22:57,006,6,test_nc2,17,blank2,0,0,671,0
3/14/24,16:22:57,006,6,test_nc2,18,numb_comp2,30,0,1700,24068            24168
3/14/24,16:22:57,006,6,test_nc2,19,blank6,0,0,1141,0
3/14/24,16:22:57,006,6,test_nc2,20,numb_comp2,38,0,5862,4215469941            4215469941
3/14/24,16:22:57,006,6,test_nc2,21,blank4,0,0,906,0
3/14/24,16:22:57,006,6,test_nc2,22,numb_comp2,38,0,5643,897529167144            897529167144
3/14/24,16:22:57,006,6,test_nc2,23,blank1,0,0,553,0
3/14/24,16:22:57,006,6,test_nc2,24,numb_comp2,38,0,2904,391317180            391317180
3/14/24,16:22:57,006,6,test_nc2,25,blank8,0,0,1376,0
3/14/24,16:22:57,006,6,test_nc2,26,numb_comp2,30,0,862,696            695
3/14/24,16:22:57,006,6,test_nc2,27,blank3,0,0,788,0
3/14/24,16:22:57,006,6,test_nc2,28,numb_comp2,30,0,4579,9450584455            9461684455
3/14/24,16:22:57,006,6,test_nc2,29,blank6,0,0,1141,0
3/14/24,16:22:57,006,6,test_nc2,30,numb_comp2,30,0,1285,619165564            619164454
3/14/24,16:22:57,006,6,test_nc2,31,blank10,0,0,1612,0
3/14/24,16:22:57,006,6,test_nc2,32,numb_comp2,38,0,3708,762115347            762115347
3/14/24,16:22:57,006,6,test_nc2,33,blank9,0,0,1494,0
3/14/24,16:22:57,006,6,test_nc2,34,numb_comp2,30,0,1843,8197739            8197849
3/14/24,16:22:57,006,6,test_nc2,35,blank3,0,0,788,0
3/14/24,16:22:57,006,6,test_nc2,36,numb_comp2,38,0,1327,92739            92739
3/14/24,16:22:57,006,6,test_nc2,37,blank9,0,0,1494,0
3/14/24,16:22:57,006,6,test_nc2,38,numb_comp2,30,0,1610,55824            55834
3/14/24,16:22:57,006,6,test_nc2,39,blank2,0,0,671,0
3/14/24,16:22:57,006,6,test_nc2,40,numb_comp2,38,0,6493,6168121946            6168121946
3/14/24,16:22:57,006,6,test_nc2,41,blank10,0,0,1612,0
3/14/24,16:22:57,006,6,test_nc2,42,numb_comp2,30,0,1282,1048            1038
3/14/24,16:22:57,006,6,test_nc2,43,blank2,0,0,671,0
3/14/24,16:22:57,006,6,test_nc2,44,numb_comp2,38,0,4009,16761296358            16761296358
3/14/24,16:22:57,006,6,test_nc2,45,blank8,0,0,1376,0
3/14/24,16:22:57,006,6,test_nc2,46,numb_comp2,30,0,6793,628605363062            628605473062
3/14/24,16:22:57,006,6,test_nc2,47,blank8,0,0,1376,0
3/14/24,16:22:57,006,6,test_nc2,48,numb_comp2,30,0,2940,657973458            657962358
3/14/24,16:22:57,006,6,test_nc2,49,blank1,0,0,553,0
3/14/24,16:22:57,006,6,test_nc2,50,numb_comp2,38,0,5523,74246568316            74246568316
3/14/24,16:22:57,006,6,test_nc2,51,blank5,0,0,1024,0
3/14/24,16:22:57,006,6,test_nc2,52,numb_comp2,38,0,1074,482            482
3/14/24,16:22:57,006,6,test_nc2,53,blank3,0,0,788,0
3/14/24,16:22:57,006,6,test_nc2,54,numb_comp2,30,0,2165,904679492412            904679492402
3/14/24,16:22:57,006,6,test_nc2,55,blank8,0,0,1376,0
3/14/24,16:22:57,006,6,test_nc2,56,numb_comp2,38,0,3610,18676209            18676209
3/14/24,16:22:57,006,6,test_nc2,57,blank2,0,0,671,0
3/14/24,16:22:57,006,6,test_nc2,58,numb_comp2,30,0,1464,87791454            87792554
3/14/24,16:22:57,006,6,test_nc2,59,blank4,0,0,906,0
3/14/24,16:22:57,006,6,test_nc2,60,numb_comp2,38,0,791,146            146
3/14/24,16:22:57,006,6,test_nc2,61,blank10,0,0,1612,0
3/14/24,16:22:57,006,6,test_nc2,62,numb_comp2,30,0,2052,444008            444118
3/14/24,16:22:57,006,6,test_nc2,63,blank9,0,0,1494,0
3/14/24,16:22:57,006,6,test_nc2,64,numb_comp2,38,0,5144,22308208            22308208
3/14/24,16:22:57,006,6,test_nc2,65,blank1,0,0,553,0
3/14/24,16:22:57,006,6,test_nc2,66,numb_comp2,38,0,2698,4334416            4334416
3/14/24,16:22:57,006,6,test_nc2,67,blank4,0,0,906,0
3/14/24,16:22:57,006,6,test_nc2,68,numb_comp2,30,0,2293,7648791            7649891
3/14/24,16:22:57,006,6,test_nc2,69,blank5,0,0,1024,0
3/14/24,16:22:57,006,6,test_nc2,70,numb_comp2,30,0,1412,802            801
3/14/24,16:22:57,006,6,test_nc2,71,blank9,0,0,1494,0
3/14/24,16:22:57,006,6,test_nc2,72,numb_comp2,30,0,1748,3980            3880
3/14/24,16:22:57,006,6,test_nc2,73,blank3,0,0,788,0
3/14/24,16:22:57,006,6,test_nc2,74,numb_comp2,30,0,5564,6875766673            6876876673
3/14/24,16:22:57,006,6,test_nc2,75,blank4,0,0,906,0
3/14/24,16:22:57,006,6,test_nc2,76,numb_comp2,38,0,2629,7321            7321
3/14/24,16:22:57,006,6,test_nc2,77,blank6,0,0,1141,0
3/14/24,16:22:57,006,6,test_nc2,78,numb_comp2,30,0,10376,58891903224            59002903224
3/14/24,16:22:57,006,6,test_nc2,79,blank1,0,0,553,0
3/14/24,16:22:57,006,6,test_nc2,80,numb_comp2,38,0,7119,656607640290            656607640290
3/14/24,16:22:57,006,7,SMf1_Abr,1,SMf_Abr12,SMf_Pos16,0,6215,
3/14/24,16:22:57,006,7,SMf1_Abr,2,SMf_Abr2,SMf_Pos12,0,1066,
3/14/24,16:22:57,006,7,SMf1_Abr,3,SMf_Abr4,y21,0,4494,b
3/14/24,16:22:57,006,7,SMf1_Abr,4,SMf_Abr3,d12,0,4097,b
3/14/24,16:22:57,006,7,SMf1_Abr,5,SMf_Abr8,SMf_Pos2,0,2277,
3/14/24,16:22:57,006,7,SMf1_Abr,6,SMf_Abr6,k14,0,2486,b
3/14/24,16:22:57,006,7,SMf1_Abr,7,SMf_Abr1,q17,0,1149,b
3/14/24,16:22:57,006,7,SMf1_Abr,8,SMf_Abr10,SMf_Pos7,0,1277,
3/14/24,16:22:57,006,7,SMf1_Abr,9,SMf_Abr11,SMf_Pos13,0,3744,
3/14/24,16:22:57,006,7,SMf1_Abr,10,SMf_Abr9,k14,0,5723,b
3/14/24,16:22:57,006,7,SMf1_Abr,11,SMf_Abr7,t18,0,5450,b
3/14/24,16:22:57,006,7,SMf1_Abr,12,SMf_Abr5,SMf_Pos16,0,1710,
3/18/24,14:44:02,003,1,SMf1Practice,1,achtung,0,0,1700,Attention!
3/18/24,14:44:02,003,1,SMf1Practice,2,SMf1_P_T1,0,0,2800,a
3/18/24,14:44:02,003,1,SMf1Practice,3,SMf1_P_T2,0,0,2800,i
3/18/24,14:44:02,003,1,SMf1Practice,4,SMf1_P_T3,0,0,2800,u
3/18/24,14:44:02,003,2,SMf1Practice_Abr,1,SMf1_P_Abr1,SMf_Pos9,1,2601,
3/18/24,14:44:02,003,2,SMf1Practice_Abr,2,SMf1_P_Abr2,i12,1,5064,u
3/18/24,14:44:02,003,2,SMf1Practice_Abr,3,SMf1_P_Abr3,SMf_Pos12,1,1518,
3/18/24,14:44:02,003,3,SMf1,1,achtung,0,0,1700,Attention!
3/18/24,14:44:02,003,3,SMf1,2,SMf1_T1,0,0,2800,b
3/18/24,14:44:02,003,3,SMf1,3,SMf1_T2,0,0,2800,m
3/18/24,14:44:02,003,3,SMf1,4,SMf1_T3,0,0,2800,k
3/18/24,14:44:02,003,3,SMf1,5,SMf1_T4,0,0,2800,c
3/18/24,14:44:02,003,3,SMf1,6,SMf1_T5,0,0,2800,y
3/18/24,14:44:02,003,3,SMf1,7,SMf1_T6,0,0,2800,h
3/18/24,14:44:02,003,3,SMf1,8,SMf1_T7,0,0,2800,x
3/18/24,14:44:02,003,3,SMf1,9,SMf1_T8,0,0,2800,p
3/18/24,14:44:02,003,3,SMf1,10,SMf1_T9,0,0,2800,t
3/18/24,14:44:02,003,3,SMf1,11,SMf1_T10,0,0,2800,d
3/18/24,14:44:02,003,3,SMf1,12,SMf1_T11,0,0,2800,q
3/18/24,14:44:02,003,3,SMf1,13,SMf1_T12,0,0,2800,v
3/18/24,14:44:02,003,4,prac_nc,1,blank_1st,0,0,1500,0
3/18/24,14:44:02,003,4,prac_nc,2,pract_nc_correct,38,1,2771,438            438
3/18/24,14:44:02,003,4,prac_nc,3,blank3,0,0,788,0
3/18/24,14:44:02,003,4,prac_nc,4,pract_nc_correct,38,1,1597,1624            1624
3/18/24,14:44:02,003,4,prac_nc,5,blank4,0,0,906,0
3/18/24,14:44:02,003,4,prac_nc,6,pract_nc_correct,38,1,987,659            659
3/18/24,14:44:02,003,4,prac_nc,7,blank10,0,0,1612,0
3/18/24,14:44:02,003,4,prac_nc,8,pract_nc_incorrect,30,1,2150,658331            656331
3/18/24,14:44:02,003,4,prac_nc,9,blank2,0,0,671,0
3/18/24,14:44:02,003,4,prac_nc,10,pract_nc_incorrect,30,1,2464,73845            73855
3/18/24,14:44:02,003,4,prac_nc,11,blank9,0,0,1494,0
3/18/24,14:44:02,003,4,prac_nc,12,pract_nc_incorrect,30,1,2154,4821459            4814259
3/18/24,14:44:02,003,5,test_nc1,1,blank_1st,0,0,1500,0
3/18/24,14:44:02,003,5,test_nc1,2,numb_comp1,38,0,2551,84470088            84470088
3/18/24,14:44:02,003,5,test_nc1,3,blank8,0,0,1376,0
3/18/24,14:44:02,003,5,test_nc1,4,numb_comp1,30,0,1403,822813            821713
3/18/24,14:44:02,003,5,test_nc1,5,blank8,0,0,1376,0
3/18/24,14:44:02,003,5,test_nc1,6,numb_comp1,38,0,1952,167390            167390
3/18/24,14:44:02,003,5,test_nc1,7,blank7,0,0,1259,0
3/18/24,14:44:02,003,5,test_nc1,8,numb_comp1,38,0,4963,3373597617            3373597617
3/18/24,14:44:02,003,5,test_nc1,9,blank9,0,0,1494,0
3/18/24,14:44:02,003,5,test_nc1,10,numb_comp1,38,0,1142,869            869
3/18/24,14:44:02,003,5,test_nc1,11,blank4,0,0,906,0
3/18/24,14:44:02,003,5,test_nc1,12,numb_comp1,38,0,4674,946154158            946154158
3/18/24,14:44:02,003,5,test_nc1,13,blank6,0,0,1141,0
3/18/24,14:44:02,003,5,test_nc1,14,numb_comp1,38,0,6135,744597632877            744598742877
3/18/24,14:44:02,003,5,test_nc1,15,blank10,0,0,1612,0
3/18/24,14:44:02,003,5,test_nc1,16,numb_comp1,30,0,2338,7433615            7432515
3/18/24,14:44:02,003,5,test_nc1,17,blank10,0,0,1612,0
3/18/24,14:44:02,003,5,test_nc1,18,numb_comp1,30,0,3142,76672            76572
3/18/24,14:44:02,003,5,test_nc1,19,blank3,0,0,788,0
3/18/24,14:44:02,003,5,test_nc1,20,numb_comp1,30,0,3187,63038506            63038506
3/18/24,14:44:02,003,5,test_nc1,21,blank1,0,0,553,0
3/18/24,14:44:02,003,5,test_nc1,22,numb_comp1,30,0,6128,338242381215            338242381215
3/18/24,14:44:02,003,5,test_nc1,23,blank9,0,0,1494,0
3/18/24,14:44:02,003,5,test_nc1,24,numb_comp1,30,0,2617,17093622            17092522
3/18/24,14:44:02,003,5,test_nc1,25,blank9,0,0,1494,0
3/18/24,14:44:02,003,5,test_nc1,26,numb_comp1,30,0,1615,89994            89984
3/18/24,14:44:02,003,5,test_nc1,27,blank4,0,0,906,0
3/18/24,14:44:02,003,5,test_nc1,28,numb_comp1,30,0,1438,8946221            8946111
3/18/24,14:44:02,003,5,test_nc1,29,blank8,0,0,1376,0
3/18/24,14:44:02,003,5,test_nc1,30,numb_comp1,30,0,1722,411205238            412315238
3/18/24,14:44:02,003,5,test_nc1,31,blank6,0,0,1141,0
3/18/24,14:44:02,003,5,test_nc1,32,numb_comp1,30,0,1043,160            161
3/18/24,14:44:02,003,5,test_nc1,33,blank2,0,0,671,0
3/18/24,14:44:02,003,5,test_nc1,34,numb_comp1,30,0,7101,96680137317            96680137317
3/18/24,14:44:02,003,5,test_nc1,35,blank5,0,0,1024,0
3/18/24,14:44:02,003,5,test_nc1,36,numb_comp1,38,0,3450,100453190            100453190
3/18/24,14:44:02,003,5,test_nc1,37,blank5,0,0,1024,0
3/18/24,14:44:02,003,5,test_nc1,38,numb_comp1,30,0,2576,3633616033            3633627133
3/18/24,14:44:02,003,5,test_nc1,39,blank9,0,0,1494,0
3/18/24,14:44:02,003,5,test_nc1,40,numb_comp1,30,0,3741,674722052809            674722052809
3/18/24,14:44:02,003,5,test_nc1,41,blank4,0,0,906,0
3/18/24,14:44:02,003,5,test_nc1,42,numb_comp1,30,0,2380,4803720325            4802610325
3/18/24,14:44:02,003,5,test_nc1,43,blank1,0,0,553,0
3/18/24,14:44:02,003,5,test_nc1,44,numb_comp1,30,0,2443,98514271399            98403271399
3/18/24,14:44:02,003,5,test_nc1,45,blank6,0,0,1141,0
3/18/24,14:44:02,003,5,test_nc1,46,numb_comp1,38,0,2302,4194957            4194957
3/18/24,14:44:02,003,5,test_nc1,47,blank1,0,0,553,0
3/18/24,14:44:02,003,5,test_nc1,48,numb_comp1,38,0,1256,79948            79948
3/18/24,14:44:02,003,5,test_nc1,49,blank2,0,0,671,0
3/18/24,14:44:02,003,5,test_nc1,50,numb_comp1,30,0,929,754            755
3/18/24,14:44:02,003,5,test_nc1,51,blank3,0,0,788,0
3/18/24,14:44:02,003,5,test_nc1,52,numb_comp1,30,0,1427,6841            6851
3/18/24,14:44:02,003,5,test_nc1,53,blank8,0,0,1376,0
3/18/24,14:44:02,003,5,test_nc1,54,numb_comp1,30,0,4703,951448201163            951448201173
3/18/24,14:44:02,003,5,test_nc1,55,blank5,0,0,1024,0
3/18/24,14:44:02,003,5,test_nc1,56,numb_comp1,38,0,1305,8662            8662
3/18/24,14:44:02,003,5,test_nc1,57,blank2,0,0,671,0
3/18/24,14:44:02,003,5,test_nc1,58,numb_comp1,38,0,871,851            851
3/18/24,14:44:02,003,5,test_nc1,59,blank7,0,0,1259,0
3/18/24,14:44:02,003,5,test_nc1,60,numb_comp1,30,0,3607,63032049608            63020949608
3/18/24,14:44:02,003,5,test_nc1,61,blank10,0,0,1612,0
3/18/24,14:44:02,003,5,test_nc1,62,numb_comp1,38,0,3286,7379311            7379311
3/18/24,14:44:02,003,5,test_nc1,63,blank3,0,0,788,0
3/18/24,14:44:02,003,5,test_nc1,64,numb_comp1,30,0,2029,996663            996553
3/18/24,14:44:02,003,5,test_nc1,65,blank6,0,0,1141,0
3/18/24,14:44:02,003,5,test_nc1,66,numb_comp1,30,0,2058,21153530            21153420
3/18/24,14:44:02,003,5,test_nc1,67,blank10,0,0,1612,0
3/18/24,14:44:02,003,5,test_nc1,68,numb_comp1,38,0,1201,9013            9013
3/18/24,14:44:02,003,5,test_nc1,69,blank4,0,0,906,0
3/18/24,14:44:02,003,5,test_nc1,70,numb_comp1,38,0,12154,92389075844            92389075844
3/18/24,14:44:02,003,5,test_nc1,71,blank2,0,0,671,0
3/18/24,14:44:02,003,5,test_nc1,72,numb_comp1,30,0,1049,6318            6418
3/18/24,14:44:02,003,5,test_nc1,73,blank7,0,0,1259,0
3/18/24,14:44:02,003,5,test_nc1,74,numb_comp1,38,0,1458,62056            62056
3/18/24,14:44:02,003,5,test_nc1,75,blank3,0,0,788,0
3/18/24,14:44:02,003,5,test_nc1,76,numb_comp1,30,0,1845,168659794            168660904
3/18/24,14:44:02,003,5,test_nc1,77,blank1,0,0,553,0
3/18/24,14:44:02,003,5,test_nc1,78,numb_comp1,38,0,3178,658697            658697
3/18/24,14:44:02,003,5,test_nc1,79,blank5,0,0,1024,0
3/18/24,14:44:02,003,5,test_nc1,80,numb_comp1,38,0,11516,2243565304            2243565304
3/18/24,14:44:02,003,6,test_nc2,1,blank_1st,0,0,1500,0
3/18/24,14:44:02,003,6,test_nc2,2,numb_comp2,30,0,2301,610459            611559
3/18/24,14:44:02,003,6,test_nc2,3,blank3,0,0,788,0
3/18/24,14:44:02,003,6,test_nc2,4,numb_comp2,38,0,1861,75538            75538
3/18/24,14:44:02,003,6,test_nc2,5,blank1,0,0,553,0
3/18/24,14:44:02,003,6,test_nc2,6,numb_comp2,38,0,1586,2089            2089
3/18/24,14:44:02,003,6,test_nc2,7,blank3,0,0,788,0
3/18/24,14:44:02,003,6,test_nc2,8,numb_comp2,38,0,1264,155121            155121
3/18/24,14:44:02,003,6,test_nc2,9,blank8,0,0,1376,0
3/18/24,14:44:02,003,6,test_nc2,10,numb_comp2,38,0,1931,1981094            1981094
3/18/24,14:44:02,003,6,test_nc2,11,blank2,0,0,671,0
3/18/24,14:44:02,003,6,test_nc2,12,numb_comp2,30,0,2472,69960347            69960457
3/18/24,14:44:02,003,6,test_nc2,13,blank7,0,0,1259,0
3/18/24,14:44:02,003,6,test_nc2,14,numb_comp2,30,0,3229,29792117073            29792105973
3/18/24,14:44:02,003,6,test_nc2,15,blank2,0,0,671,0
3/18/24,14:44:02,003,6,test_nc2,16,numb_comp2,38,0,3267,278233            278233
3/18/24,14:44:02,003,6,test_nc2,17,blank10,0,0,1612,0
3/18/24,14:44:02,003,6,test_nc2,18,numb_comp2,38,0,2071,24068            24168
3/18/24,14:44:02,003,6,test_nc2,19,blank10,0,0,1612,0
3/18/24,14:44:02,003,6,test_nc2,20,numb_comp2,30,0,2191,4215469941            4215469941
3/18/24,14:44:02,003,6,test_nc2,21,blank2,0,0,671,0
3/18/24,14:44:02,003,6,test_nc2,22,numb_comp2,38,0,6928,897529167144            897529167144
3/18/24,14:44:02,003,6,test_nc2,23,blank4,0,0,906,0
3/18/24,14:44:02,003,6,test_nc2,24,numb_comp2,38,0,3489,391317180            391317180
3/18/24,14:44:02,003,6,test_nc2,25,blank5,0,0,1024,0
3/18/24,14:44:02,003,6,test_nc2,26,numb_comp2,30,0,1077,696            695
3/18/24,14:44:02,003,6,test_nc2,27,blank6,0,0,1141,0
3/18/24,14:44:02,003,6,test_nc2,28,numb_comp2,30,0,1874,9450584455            9461684455
3/18/24,14:44:02,003,6,test_nc2,29,blank9,0,0,1494,0
3/18/24,14:44:02,003,6,test_nc2,30,numb_comp2,30,0,4165,619165564            619164454
3/18/24,14:44:02,003,6,test_nc2,31,blank7,0,0,1259,0
3/18/24,14:44:02,003,6,test_nc2,32,numb_comp2,38,0,3003,762115347            762115347
3/18/24,14:44:02,003,6,test_nc2,33,blank7,0,0,1259,0
3/18/24,14:44:02,003,6,test_nc2,34,numb_comp2,30,0,2258,8197739            8197849
3/18/24,14:44:02,003,6,test_nc2,35,blank9,0,0,1494,0
3/18/24,14:44:02,003,6,test_nc2,36,numb_comp2,38,0,1878,92739            92739
3/18/24,14:44:02,003,6,test_nc2,37,blank6,0,0,1141,0
3/18/24,14:44:02,003,6,test_nc2,38,numb_comp2,30,0,1482,55824            55834
3/18/24,14:44:02,003,6,test_nc2,39,blank2,0,0,671,0
3/18/24,14:44:02,003,6,test_nc2,40,numb_comp2,38,0,5122,6168121946            6168121946
3/18/24,14:44:02,003,6,test_nc2,41,blank6,0,0,1141,0
3/18/24,14:44:02,003,6,test_nc2,42,numb_comp2,30,0,1069,1048            1038
3/18/24,14:44:02,003,6,test_nc2,43,blank4,0,0,906,0
3/18/24,14:44:02,003,6,test_nc2,44,numb_comp2,38,0,2930,16761296358            16761296358
3/18/24,14:44:02,003,6,test_nc2,45,blank1,0,0,553,0
3/18/24,14:44:02,003,6,test_nc2,46,numb_comp2,30,0,2602,628605363062            628605473062
3/18/24,14:44:02,003,6,test_nc2,47,blank10,0,0,1612,0
3/18/24,14:44:02,003,6,test_nc2,48,numb_comp2,30,0,2763,657973458            657962358
3/18/24,14:44:02,003,6,test_nc2,49,blank4,0,0,906,0
3/18/24,14:44:02,003,6,test_nc2,50,numb_comp2,38,0,6499,74246568316            74246568316
3/18/24,14:44:02,003,6,test_nc2,51,blank5,0,0,1024,0
3/18/24,14:44:02,003,6,test_nc2,52,numb_comp2,38,0,992,482            482
3/18/24,14:44:02,003,6,test_nc2,53,blank8,0,0,1376,0
3/18/24,14:44:02,003,6,test_nc2,54,numb_comp2,30,0,3519,904679492412            904679492402
3/18/24,14:44:02,003,6,test_nc2,55,blank1,0,0,553,0
3/18/24,14:44:02,003,6,test_nc2,56,numb_comp2,38,0,2670,18676209            18676209
3/18/24,14:44:02,003,6,test_nc2,57,blank5,0,0,1024,0
3/18/24,14:44:02,003,6,test_nc2,58,numb_comp2,30,0,2684,87791454            87792554
3/18/24,14:44:02,003,6,test_nc2,59,blank6,0,0,1141,0
3/18/24,14:44:02,003,6,test_nc2,60,numb_comp2,38,0,933,146            146
3/18/24,14:44:02,003,6,test_nc2,61,blank3,0,0,788,0
3/18/24,14:44:02,003,6,test_nc2,62,numb_comp2,30,0,1807,444008            444118
3/18/24,14:44:02,003,6,test_nc2,63,blank3,0,0,788,0
3/18/24,14:44:02,003,6,test_nc2,64,numb_comp2,38,0,2099,22308208            22308208
3/18/24,14:44:02,003,6,test_nc2,65,blank8,0,0,1376,0
3/18/24,14:44:02,003,6,test_nc2,66,numb_comp2,38,0,2532,4334416            4334416
3/18/24,14:44:02,003,6,test_nc2,67,blank5,0,0,1024,0
3/18/24,14:44:02,003,6,test_nc2,68,numb_comp2,30,0,3185,7648791            7649891
3/18/24,14:44:02,003,6,test_nc2,69,blank4,0,0,906,0
3/18/24,14:44:02,003,6,test_nc2,70,numb_comp2,30,0,1167,802            801
3/18/24,14:44:02,003,6,test_nc2,71,blank7,0,0,1259,0
3/18/24,14:44:02,003,6,test_nc2,72,numb_comp2,30,0,1203,3980            3880
3/18/24,14:44:02,003,6,test_nc2,73,blank1,0,0,553,0
3/18/24,14:44:02,003,6,test_nc2,74,numb_comp2,30,0,2811,6875766673            6876876673
3/18/24,14:44:02,003,6,test_nc2,75,blank9,0,0,1494,0
3/18/24,14:44:02,003,6,test_nc2,76,numb_comp2,38,0,1183,7321            7321
3/18/24,14:44:02,003,6,test_nc2,77,blank8,0,0,1376,0
3/18/24,14:44:02,003,6,test_nc2,78,numb_comp2,30,0,1589,58891903224            59002903224
3/18/24,14:44:02,003,6,test_nc2,79,blank10,0,0,1612,0
3/18/24,14:44:02,003,6,test_nc2,80,numb_comp2,38,0,4113,656607640290            656607640290
3/18/24,14:44:02,003,7,SMf1_Abr,1,SMf_Abr12,SMf_Pos14,0,4079,
3/18/24,14:44:02,003,7,SMf1_Abr,2,SMf_Abr2,SMf_Pos15,0,2572,
3/18/24,14:44:02,003,7,SMf1_Abr,3,SMf_Abr4,y21,0,5336,b
3/18/24,14:44:02,003,7,SMf1_Abr,4,SMf_Abr3,d12,0,8943,b
3/18/24,14:44:02,003,7,SMf1_Abr,5,SMf_Abr8,SMf_Pos9,0,3280,
3/18/24,14:44:02,003,7,SMf1_Abr,6,SMf_Abr6,p16,0,1846,b
3/18/24,14:44:02,003,7,SMf1_Abr,7,SMf_Abr1,b10,1,2241,b
3/18/24,14:44:02,003,7,SMf1_Abr,8,SMf_Abr10,SMf_Pos13,0,1764,
3/18/24,14:44:02,003,7,SMf1_Abr,9,SMf_Abr11,SMf_Pos8,0,3330,
3/18/24,14:44:02,003,7,SMf1_Abr,10,SMf_Abr9,y21,0,4127,b
3/18/24,14:44:02,003,7,SMf1_Abr,11,SMf_Abr7,t18,0,2928,b
3/18/24,14:44:02,003,7,SMf1_Abr,12,SMf_Abr5,SMf_Pos1,0,3950,
3/18/24,15:23:50,004,1,SMf1Practice,,,Ctrl+'Q',,,
3/18/24,17:20:41,011,1,SMf1Practice,1,achtung,0,0,1700,Attention!
3/18/24,17:20:41,011,1,SMf1Practice,2,SMf1_P_T1,0,0,2800,a
3/18/24,17:20:41,011,1,SMf1Practice,3,SMf1_P_T2,0,0,2800,i
3/18/24,17:20:41,011,1,SMf1Practice,4,SMf1_P_T3,0,0,2800,u
3/18/24,17:20:41,011,2,SMf1Practice_Abr,1,SMf1_P_Abr1,SMf_Pos9,1,1825,
3/18/24,17:20:41,011,2,SMf1Practice_Abr,2,SMf1_P_Abr2,i12,1,3248,u
3/18/24,17:20:41,011,2,SMf1Practice_Abr,3,SMf1_P_Abr3,SMf_Pos12,1,1107,
3/18/24,17:20:41,011,3,SMf1,1,achtung,0,0,1700,Attention!
3/18/24,17:20:41,011,3,SMf1,2,SMf1_T1,0,0,2800,b
3/18/24,17:20:41,011,3,SMf1,3,SMf1_T2,0,0,2800,m
3/18/24,17:20:41,011,3,SMf1,4,SMf1_T3,0,0,2800,k
3/18/24,17:20:41,011,3,SMf1,5,SMf1_T4,0,0,2800,c
3/18/24,17:20:41,011,3,SMf1,6,SMf1_T5,0,0,2800,y
3/18/24,17:20:41,011,3,SMf1,7,SMf1_T6,0,0,2800,h
3/18/24,17:20:41,011,3,SMf1,8,SMf1_T7,0,0,2800,x
3/18/24,17:20:41,011,3,SMf1,9,SMf1_T8,0,0,2800,p
3/18/24,17:20:41,011,3,SMf1,10,SMf1_T9,0,0,2800,t
3/18/24,17:20:41,011,3,SMf1,11,SMf1_T10,0,0,2800,d
3/18/24,17:20:41,011,3,SMf1,12,SMf1_T11,0,0,2800,q
3/18/24,17:20:41,011,3,SMf1,13,SMf1_T12,0,0,2800,v
3/18/24,17:20:41,011,4,prac_nc,1,blank_1st,0,0,1500,0
3/18/24,17:20:41,011,4,prac_nc,2,pract_nc_correct,38,1,4685,438            438
3/18/24,17:20:41,011,4,prac_nc,3,blank8,0,0,1376,0
3/18/24,17:20:41,011,4,prac_nc,4,pract_nc_incorrect,30,1,3222,73845            73855
3/18/24,17:20:41,011,4,prac_nc,5,blank6,0,0,1141,0
3/18/24,17:20:41,011,4,prac_nc,6,pract_nc_correct,38,1,1846,1624            1624
3/18/24,17:20:41,011,4,prac_nc,7,blank4,0,0,906,0
3/18/24,17:20:41,011,4,prac_nc,8,pract_nc_incorrect,30,1,1754,4821459            4814259
3/18/24,17:20:41,011,4,prac_nc,9,blank9,0,0,1494,0
3/18/24,17:20:41,011,4,prac_nc,10,pract_nc_incorrect,30,1,2730,658331            656331
3/18/24,17:20:41,011,4,prac_nc,11,blank7,0,0,1259,0
3/18/24,17:20:41,011,4,prac_nc,12,pract_nc_correct,38,1,2554,659            659
3/18/24,17:20:41,011,5,test_nc1,1,blank_1st,0,0,1500,0
3/18/24,17:20:41,011,5,test_nc1,2,numb_comp1,38,0,4144,84470088            84470088
3/18/24,17:20:41,011,5,test_nc1,3,blank4,0,0,906,0
3/18/24,17:20:41,011,5,test_nc1,4,numb_comp1,30,0,1294,822813            821713
3/18/24,17:20:41,011,5,test_nc1,5,blank4,0,0,906,0
3/18/24,17:20:41,011,5,test_nc1,6,numb_comp1,38,0,2004,167390            167390
3/18/24,17:20:41,011,5,test_nc1,7,blank8,0,0,1376,0
3/18/24,17:20:41,011,5,test_nc1,8,numb_comp1,38,0,3679,3373597617            3373597617
3/18/24,17:20:41,011,5,test_nc1,9,blank6,0,0,1141,0
3/18/24,17:20:41,011,5,test_nc1,10,numb_comp1,38,0,1039,869            869
3/18/24,17:20:41,011,5,test_nc1,11,blank6,0,0,1141,0
3/18/24,17:20:41,011,5,test_nc1,12,numb_comp1,38,0,2309,946154158            946154158
3/18/24,17:20:41,011,5,test_nc1,13,blank9,0,0,1494,0
3/18/24,17:20:41,011,5,test_nc1,14,numb_comp1,30,0,1959,744597632877            744598742877
3/18/24,17:20:41,011,5,test_nc1,15,blank8,0,0,1376,0
3/18/24,17:20:41,011,5,test_nc1,16,numb_comp1,30,0,1436,7433615            7432515
3/18/24,17:20:41,011,5,test_nc1,17,blank2,0,0,671,0
3/18/24,17:20:41,011,5,test_nc1,18,numb_comp1,30,0,1478,76672            76572
3/18/24,17:20:41,011,5,test_nc1,19,blank8,0,0,1376,0
3/18/24,17:20:41,011,5,test_nc1,20,numb_comp1,38,0,2360,63038506            63038506
3/18/24,17:20:41,011,5,test_nc1,21,blank5,0,0,1024,0
3/18/24,17:20:41,011,5,test_nc1,22,numb_comp1,38,0,8564,338242381215            338242381215
3/18/24,17:20:41,011,5,test_nc1,23,blank6,0,0,1141,0
3/18/24,17:20:41,011,5,test_nc1,24,numb_comp1,30,0,2038,17093622            17092522
3/18/24,17:20:41,011,5,test_nc1,25,blank3,0,0,788,0
3/18/24,17:20:41,011,5,test_nc1,26,numb_comp1,30,0,1481,89994            89984
3/18/24,17:20:41,011,5,test_nc1,27,blank9,0,0,1494,0
3/18/24,17:20:41,011,5,test_nc1,28,numb_comp1,30,0,2622,8946221            8946111
3/18/24,17:20:41,011,5,test_nc1,29,blank3,0,0,788,0
3/18/24,17:20:41,011,5,test_nc1,30,numb_comp1,30,0,1400,411205238            412315238
3/18/24,17:20:41,011,5,test_nc1,31,blank9,0,0,1494,0
3/18/24,17:20:41,011,5,test_nc1,32,numb_comp1,30,0,872,160            161
3/18/24,17:20:41,011,5,test_nc1,33,blank2,0,0,671,0
3/18/24,17:20:41,011,5,test_nc1,34,numb_comp1,38,0,3737,96680137317            96680137317
3/18/24,17:20:41,011,5,test_nc1,35,blank7,0,0,1259,0
3/18/24,17:20:41,011,5,test_nc1,36,numb_comp1,38,0,1905,100453190            100453190
3/18/24,17:20:41,011,5,test_nc1,37,blank10,0,0,1612,0
3/18/24,17:20:41,011,5,test_nc1,38,numb_comp1,30,0,2415,3633616033            3633627133
3/18/24,17:20:41,011,5,test_nc1,39,blank1,0,0,553,0
3/18/24,17:20:41,011,5,test_nc1,40,numb_comp1,38,0,4541,674722052809            674722052809
3/18/24,17:20:41,011,5,test_nc1,41,blank8,0,0,1376,0
3/18/24,17:20:41,011,5,test_nc1,42,numb_comp1,30,0,2533,4803720325            4802610325
3/18/24,17:20:41,011,5,test_nc1,43,blank1,0,0,553,0
3/18/24,17:20:41,011,5,test_nc1,44,numb_comp1,30,0,1941,98514271399            98403271399
3/18/24,17:20:41,011,5,test_nc1,45,blank5,0,0,1024,0
3/18/24,17:20:41,011,5,test_nc1,46,numb_comp1,38,0,1739,4194957            4194957
3/18/24,17:20:41,011,5,test_nc1,47,blank7,0,0,1259,0
3/18/24,17:20:41,011,5,test_nc1,48,numb_comp1,38,0,1911,79948            79948
3/18/24,17:20:41,011,5,test_nc1,49,blank3,0,0,788,0
3/18/24,17:20:41,011,5,test_nc1,50,numb_comp1,30,0,1511,754            755
3/18/24,17:20:41,011,5,test_nc1,51,blank4,0,0,906,0
3/18/24,17:20:41,011,5,test_nc1,52,numb_comp1,30,0,1732,6841            6851
3/18/24,17:20:41,011,5,test_nc1,53,blank5,0,0,1024,0
3/18/24,17:20:41,011,5,test_nc1,54,numb_comp1,30,0,4066,951448201163            951448201173
3/18/24,17:20:41,011,5,test_nc1,55,blank1,0,0,553,0
3/18/24,17:20:41,011,5,test_nc1,56,numb_comp1,38,0,1274,8662            8662
3/18/24,17:20:41,011,5,test_nc1,57,blank3,0,0,788,0
3/18/24,17:20:41,011,5,test_nc1,58,numb_comp1,38,0,910,851            851
3/18/24,17:20:41,011,5,test_nc1,59,blank10,0,0,1612,0
3/18/24,17:20:41,011,5,test_nc1,60,numb_comp1,30,0,3245,63032049608            63020949608
3/18/24,17:20:41,011,5,test_nc1,61,blank1,0,0,553,0
3/18/24,17:20:41,011,5,test_nc1,62,numb_comp1,38,0,1511,7379311            7379311
3/18/24,17:20:41,011,5,test_nc1,63,blank10,0,0,1612,0
3/18/24,17:20:41,011,5,test_nc1,64,numb_comp1,30,0,1454,996663            996553
3/18/24,17:20:41,011,5,test_nc1,65,blank10,0,0,1612,0
3/18/24,17:20:41,011,5,test_nc1,66,numb_comp1,30,0,1648,21153530            21153420
3/18/24,17:20:41,011,5,test_nc1,67,blank7,0,0,1259,0
3/18/24,17:20:41,011,5,test_nc1,68,numb_comp1,38,0,1264,9013            9013
3/18/24,17:20:41,011,5,test_nc1,69,blank2,0,0,671,0
3/18/24,17:20:41,011,5,test_nc1,70,numb_comp1,38,0,4105,92389075844            92389075844
3/18/24,17:20:41,011,5,test_nc1,71,blank9,0,0,1494,0
3/18/24,17:20:41,011,5,test_nc1,72,numb_comp1,30,0,1375,6318            6418
3/18/24,17:20:41,011,5,test_nc1,73,blank6,0,0,1141,0
3/18/24,17:20:41,011,5,test_nc1,74,numb_comp1,38,0,1840,62056            62056
3/18/24,17:20:41,011,5,test_nc1,75,blank4,0,0,906,0
3/18/24,17:20:41,011,5,test_nc1,76,numb_comp1,30,0,3118,168659794            168660904
3/18/24,17:20:41,011,5,test_nc1,77,blank7,0,0,1259,0
3/18/24,17:20:41,011,5,test_nc1,78,numb_comp1,38,0,2151,658697            658697
3/18/24,17:20:41,011,5,test_nc1,79,blank2,0,0,671,0
3/18/24,17:20:41,011,5,test_nc1,80,numb_comp1,38,0,3826,2243565304            2243565304
3/18/24,17:20:41,011,6,test_nc2,1,blank_1st,0,0,1500,0
3/18/24,17:20:41,011,6,test_nc2,2,numb_comp2,30,0,1489,610459            611559
3/18/24,17:20:41,011,6,test_nc2,3,blank7,0,0,1259,0
3/18/24,17:20:41,011,6,test_nc2,4,numb_comp2,38,0,1415,75538            75538
3/18/24,17:20:41,011,6,test_nc2,5,blank1,0,0,553,0
3/18/24,17:20:41,011,6,test_nc2,6,numb_comp2,38,0,975,2089            2089
3/18/24,17:20:41,011,6,test_nc2,7,blank1,0,0,553,0
3/18/24,17:20:41,011,6,test_nc2,8,numb_comp2,38,0,1072,155121            155121
3/18/24,17:20:41,011,6,test_nc2,9,blank6,0,0,1141,0
3/18/24,17:20:41,011,6,test_nc2,10,numb_comp2,38,0,1654,1981094            1981094
3/18/24,17:20:41,011,6,test_nc2,11,blank6,0,0,1141,0
3/18/24,17:20:41,011,6,test_nc2,12,numb_comp2,30,0,2434,69960347            69960457
3/18/24,17:20:41,011,6,test_nc2,13,blank9,0,0,1494,0
3/18/24,17:20:41,011,6,test_nc2,14,numb_comp2,30,0,2766,29792117073            29792105973
3/18/24,17:20:41,011,6,test_nc2,15,blank1,0,0,553,0
3/18/24,17:20:41,011,6,test_nc2,16,numb_comp2,38,0,2325,278233            278233
3/18/24,17:20:41,011,6,test_nc2,17,blank9,0,0,1494,0
3/18/24,17:20:41,011,6,test_nc2,18,numb_comp2,30,0,1687,24068            24168
3/18/24,17:20:41,011,6,test_nc2,19,blank8,0,0,1376,0
3/18/24,17:20:41,011,6,test_nc2,20,numb_comp2,38,0,4760,4215469941            4215469941
3/18/24,17:20:41,011,6,test_nc2,21,blank8,0,0,1376,0
3/18/24,17:20:41,011,6,test_nc2,22,numb_comp2,38,0,5800,897529167144            897529167144
3/18/24,17:20:41,011,6,test_nc2,23,blank5,0,0,1024,0
3/18/24,17:20:41,011,6,test_nc2,24,numb_comp2,38,0,2043,391317180            391317180
3/18/24,17:20:41,011,6,test_nc2,25,blank7,0,0,1259,0
3/18/24,17:20:41,011,6,test_nc2,26,numb_comp2,30,0,978,696            695
3/18/24,17:20:41,011,6,test_nc2,27,blank10,0,0,1612,0
3/18/24,17:20:41,011,6,test_nc2,28,numb_comp2,30,0,2143,9450584455            9461684455
3/18/24,17:20:41,011,6,test_nc2,29,blank4,0,0,906,0
3/18/24,17:20:41,011,6,test_nc2,30,numb_comp2,30,0,2473,619165564            619164454
3/18/24,17:20:41,011,6,test_nc2,31,blank9,0,0,1494,0
3/18/24,17:20:41,011,6,test_nc2,32,numb_comp2,38,0,2340,762115347            762115347
3/18/24,17:20:41,011,6,test_nc2,33,blank10,0,0,1612,0
3/18/24,17:20:41,011,6,test_nc2,34,numb_comp2,30,0,1608,8197739            8197849
3/18/24,17:20:41,011,6,test_nc2,35,blank8,0,0,1376,0
3/18/24,17:20:41,011,6,test_nc2,36,numb_comp2,38,0,1933,92739            92739
3/18/24,17:20:41,011,6,test_nc2,37,blank5,0,0,1024,0
3/18/24,17:20:41,011,6,test_nc2,38,numb_comp2,30,0,1291,55824            55834
3/18/24,17:20:41,011,6,test_nc2,39,blank2,0,0,671,0
3/18/24,17:20:41,011,6,test_nc2,40,numb_comp2,38,0,2434,6168121946            6168121946
3/18/24,17:20:41,011,6,test_nc2,41,blank2,0,0,671,0
3/18/24,17:20:41,011,6,test_nc2,42,numb_comp2,30,0,1218,1048            1038
3/18/24,17:20:41,011,6,test_nc2,43,blank9,0,0,1494,0
3/18/24,17:20:41,011,6,test_nc2,44,numb_comp2,38,0,4841,16761296358            16761296358
3/18/24,17:20:41,011,6,test_nc2,45,blank6,0,0,1141,0
3/18/24,17:20:41,011,6,test_nc2,46,numb_comp2,30,0,3047,628605363062            628605473062
3/18/24,17:20:41,011,6,test_nc2,47,blank10,0,0,1612,0
3/18/24,17:20:41,011,6,test_nc2,48,numb_comp2,30,0,2062,657973458            657962358
3/18/24,17:20:41,011,6,test_nc2,49,blank8,0,0,1376,0
3/18/24,17:20:41,011,6,test_nc2,50,numb_comp2,38,0,3767,74246568316            74246568316
3/18/24,17:20:41,011,6,test_nc2,51,blank3,0,0,788,0
3/18/24,17:20:41,011,6,test_nc2,52,numb_comp2,38,0,1042,482            482
3/18/24,17:20:41,011,6,test_nc2,53,blank3,0,0,788,0
3/18/24,17:20:41,011,6,test_nc2,54,numb_comp2,30,0,5639,904679492412            904679492402
3/18/24,17:20:41,011,6,test_nc2,55,blank1,0,0,553,0
3/18/24,17:20:41,011,6,test_nc2,56,numb_comp2,38,0,3940,18676209            18676209
3/18/24,17:20:41,011,6,test_nc2,57,blank2,0,0,671,0
3/18/24,17:20:41,011,6,test_nc2,58,numb_comp2,30,0,3332,87791454            87792554
3/18/24,17:20:41,011,6,test_nc2,59,blank4,0,0,906,0
3/18/24,17:20:41,011,6,test_nc2,60,numb_comp2,38,0,1476,146            146
3/18/24,17:20:41,011,6,test_nc2,61,blank6,0,0,1141,0
3/18/24,17:20:41,011,6,test_nc2,62,numb_comp2,30,0,2200,444008            444118
3/18/24,17:20:41,011,6,test_nc2,63,blank7,0,0,1259,0
3/18/24,17:20:41,011,6,test_nc2,64,numb_comp2,38,0,2657,22308208            22308208
3/18/24,17:20:41,011,6,test_nc2,65,blank4,0,0,906,0
3/18/24,17:20:41,011,6,test_nc2,66,numb_comp2,38,0,1605,4334416            4334416
3/18/24,17:20:41,011,6,test_nc2,67,blank2,0,0,671,0
3/18/24,17:20:41,011,6,test_nc2,68,numb_comp2,30,0,1991,7648791            7649891
3/18/24,17:20:41,011,6,test_nc2,69,blank10,0,0,1612,0
3/18/24,17:20:41,011,6,test_nc2,70,numb_comp2,30,0,1866,802            801
3/18/24,17:20:41,011,6,test_nc2,71,blank4,0,0,906,0
3/18/24,17:20:41,011,6,test_nc2,72,numb_comp2,30,0,1216,3980            3880
3/18/24,17:20:41,011,6,test_nc2,73,blank3,0,0,788,0
3/18/24,17:20:41,011,6,test_nc2,74,numb_comp2,30,0,2068,6875766673            6876876673
3/18/24,17:20:41,011,6,test_nc2,75,blank5,0,0,1024,0
3/18/24,17:20:41,011,6,test_nc2,76,numb_comp2,38,0,1596,7321            7321
3/18/24,17:20:41,011,6,test_nc2,77,blank7,0,0,1259,0
3/18/24,17:20:41,011,6,test_nc2,78,numb_comp2,30,0,1351,58891903224            59002903224
3/18/24,17:20:41,011,6,test_nc2,79,blank3,0,0,788,0
3/18/24,17:20:41,011,6,test_nc2,80,numb_comp2,38,0,4238,656607640290            656607640290
3/18/24,17:20:41,011,7,SMf1_Abr,1,SMf_Abr12,SMf_Pos5,0,8422,
3/18/24,17:20:41,011,7,SMf1_Abr,2,SMf_Abr2,SMf_Pos11,1,9316,
3/18/24,17:20:41,011,7,SMf1_Abr,3,SMf_Abr4,q17,0,19204,b
3/18/24,17:20:41,011,7,SMf1_Abr,4,SMf_Abr3,k14,1,2109,b
3/18/24,17:20:41,011,7,SMf1_Abr,5,SMf_Abr8,SMf_Pos5,1,2445,
3/18/24,17:20:41,011,7,SMf1_Abr,6,SMf_Abr6,k14,0,17110,b
3/18/24,17:20:41,011,7,SMf1_Abr,7,SMf_Abr1,b10,1,11015,b
3/18/24,17:20:41,011,7,SMf1_Abr,8,SMf_Abr10,SMf_Pos10,0,5952,
3/18/24,17:20:41,011,7,SMf1_Abr,9,SMf_Abr11,SMf_Pos16,0,1694,
3/18/24,17:20:41,011,7,SMf1_Abr,10,SMf_Abr9,x20,0,2472,b
3/18/24,17:20:41,011,7,SMf1_Abr,11,SMf_Abr7,y21,0,2064,b
3/18/24,17:20:41,011,7,SMf1_Abr,12,SMf_Abr5,SMf_Pos3,0,1554,
3/19/24,11:41:18,012,1,SMf1Practice,1,achtung,0,0,1700,Attention!
3/19/24,11:41:18,012,1,SMf1Practice,2,SMf1_P_T1,0,0,2800,a
3/19/24,11:41:18,012,1,SMf1Practice,3,SMf1_P_T2,0,0,2800,i
3/19/24,11:41:18,012,1,SMf1Practice,4,SMf1_P_T3,0,0,2800,u
3/19/24,11:41:18,012,2,SMf1Practice_Abr,1,SMf1_P_Abr1,SMf_Pos9,1,5559,
3/19/24,11:41:18,012,2,SMf1Practice_Abr,2,SMf1_P_Abr2,i12,1,3056,u
3/19/24,11:41:18,012,2,SMf1Practice_Abr,3,SMf1_P_Abr3,SMf_Pos12,1,2643,
3/19/24,11:41:18,012,3,SMf1,1,achtung,0,0,1700,Attention!
3/19/24,11:41:18,012,3,SMf1,2,SMf1_T1,0,0,2800,b
3/19/24,11:41:18,012,3,SMf1,3,SMf1_T2,0,0,2800,m
3/19/24,11:41:18,012,3,SMf1,4,SMf1_T3,0,0,2800,k
3/19/24,11:41:18,012,3,SMf1,5,SMf1_T4,0,0,2800,c
3/19/24,11:41:18,012,3,SMf1,6,SMf1_T5,0,0,2800,y
3/19/24,11:41:18,012,3,SMf1,7,SMf1_T6,0,0,2800,h
3/19/24,11:41:18,012,3,SMf1,8,SMf1_T7,0,0,2800,x
3/19/24,11:41:18,012,3,SMf1,9,SMf1_T8,0,0,2800,p
3/19/24,11:41:18,012,3,SMf1,10,SMf1_T9,0,0,2800,t
3/19/24,11:41:18,012,3,SMf1,11,SMf1_T10,0,0,2800,d
3/19/24,11:41:18,012,3,SMf1,12,SMf1_T11,0,0,2800,q
3/19/24,11:41:18,012,3,SMf1,13,SMf1_T12,0,0,2800,v
3/19/24,11:41:18,012,4,prac_nc,1,blank_1st,0,0,1500,0
3/19/24,11:41:18,012,4,prac_nc,2,pract_nc_incorrect,38,0,11081,658331            656331
3/19/24,11:41:18,012,4,prac_nc,3,blank2,0,0,671,0
3/19/24,11:41:18,012,4,prac_nc,4,pract_nc_incorrect,30,1,3499,4821459            4814259
3/19/24,11:41:18,012,4,prac_nc,5,blank1,0,0,553,0
3/19/24,11:41:18,012,4,prac_nc,6,pract_nc_correct,38,1,1017,438            438
3/19/24,11:41:18,012,4,prac_nc,7,blank3,0,0,788,0
3/19/24,11:41:18,012,4,prac_nc,8,pract_nc_correct,38,1,1117,1624            1624
3/19/24,11:41:18,012,4,prac_nc,9,blank8,0,0,1376,0
3/19/24,11:41:18,012,4,prac_nc,10,pract_nc_incorrect,30,1,8619,73845            73855
3/19/24,11:41:18,012,4,prac_nc,11,blank5,0,0,1024,0
3/19/24,11:41:18,012,4,prac_nc,12,pract_nc_correct,38,1,709,659            659
3/19/24,11:41:18,012,5,test_nc1,1,blank_1st,0,0,1500,0
3/19/24,11:41:18,012,5,test_nc1,2,numb_comp1,38,0,2078,84470088            84470088
3/19/24,11:41:18,012,5,test_nc1,3,blank9,0,0,1494,0
3/19/24,11:41:18,012,5,test_nc1,4,numb_comp1,30,0,1201,822813            821713
3/19/24,11:41:18,012,5,test_nc1,5,blank1,0,0,553,0
3/19/24,11:41:18,012,5,test_nc1,6,numb_comp1,38,0,1561,167390            167390
3/19/24,11:41:18,012,5,test_nc1,7,blank7,0,0,1259,0
3/19/24,11:41:18,012,5,test_nc1,8,numb_comp1,30,0,4645,3373597617            3373597617
3/19/24,11:41:18,012,5,test_nc1,9,blank5,0,0,1024,0
3/19/24,11:41:18,012,5,test_nc1,10,numb_comp1,38,0,593,869            869
3/19/24,11:41:18,012,5,test_nc1,11,blank10,0,0,1612,0
3/19/24,11:41:18,012,5,test_nc1,12,numb_comp1,38,0,3125,946154158            946154158
3/19/24,11:41:18,012,5,test_nc1,13,blank10,0,0,1612,0
3/19/24,11:41:18,012,5,test_nc1,14,numb_comp1,30,0,3904,744597632877            744598742877
3/19/24,11:41:18,012,5,test_nc1,15,blank6,0,0,1141,0
3/19/24,11:41:18,012,5,test_nc1,16,numb_comp1,30,0,2638,7433615            7432515
3/19/24,11:41:18,012,5,test_nc1,17,blank8,0,0,1376,0
3/19/24,11:41:18,012,5,test_nc1,18,numb_comp1,30,0,1471,76672            76572
3/19/24,11:41:18,012,5,test_nc1,19,blank2,0,0,671,0
3/19/24,11:41:18,012,5,test_nc1,20,numb_comp1,38,0,2782,63038506            63038506
3/19/24,11:41:18,012,5,test_nc1,21,blank9,0,0,1494,0
3/19/24,11:41:18,012,5,test_nc1,22,numb_comp1,38,0,6461,338242381215            338242381215
3/19/24,11:41:18,012,5,test_nc1,23,blank8,0,0,1376,0
3/19/24,11:41:18,012,5,test_nc1,24,numb_comp1,30,0,2037,17093622            17092522
3/19/24,11:41:18,012,5,test_nc1,25,blank6,0,0,1141,0
3/19/24,11:41:18,012,5,test_nc1,26,numb_comp1,38,0,1538,89994            89984
3/19/24,11:41:18,012,5,test_nc1,27,blank3,0,0,788,0
3/19/24,11:41:18,012,5,test_nc1,28,numb_comp1,30,0,1954,8946221            8946111
3/19/24,11:41:18,012,5,test_nc1,29,blank8,0,0,1376,0
3/19/24,11:41:18,012,5,test_nc1,30,numb_comp1,30,0,2807,411205238            412315238
3/19/24,11:41:18,012,5,test_nc1,31,blank7,0,0,1259,0
3/19/24,11:41:18,012,5,test_nc1,32,numb_comp1,30,0,1062,160            161
3/19/24,11:41:18,012,5,test_nc1,33,blank5,0,0,1024,0
3/19/24,11:41:18,012,5,test_nc1,34,numb_comp1,38,0,5225,96680137317            96680137317
3/19/24,11:41:18,012,5,test_nc1,35,blank8,0,0,1376,0
3/19/24,11:41:18,012,5,test_nc1,36,numb_comp1,38,0,2677,100453190            100453190
3/19/24,11:41:18,012,5,test_nc1,37,blank3,0,0,788,0
3/19/24,11:41:18,012,5,test_nc1,38,numb_comp1,30,0,1590,3633616033            3633627133
3/19/24,11:41:18,012,5,test_nc1,39,blank2,0,0,671,0
3/19/24,11:41:18,012,5,test_nc1,40,numb_comp1,30,0,3391,674722052809            674722052809
3/19/24,11:41:18,012,5,test_nc1,41,blank9,0,0,1494,0
3/19/24,11:41:18,012,5,test_nc1,42,numb_comp1,30,0,2508,4803720325            4802610325
3/19/24,11:41:18,012,5,test_nc1,43,blank10,0,0,1612,0
3/19/24,11:41:18,012,5,test_nc1,44,numb_comp1,30,0,3465,98514271399            98403271399
3/19/24,11:41:18,012,5,test_nc1,45,blank7,0,0,1259,0
3/19/24,11:41:18,012,5,test_nc1,46,numb_comp1,38,0,2861,4194957            4194957
3/19/24,11:41:18,012,5,test_nc1,47,blank3,0,0,788,0
3/19/24,11:41:18,012,5,test_nc1,48,numb_comp1,38,0,1157,79948            79948
3/19/24,11:41:18,012,5,test_nc1,49,blank4,0,0,906,0
3/19/24,11:41:18,012,5,test_nc1,50,numb_comp1,30,0,912,754            755
3/19/24,11:41:18,012,5,test_nc1,51,blank1,0,0,553,0
3/19/24,11:41:18,012,5,test_nc1,52,numb_comp1,30,0,1229,6841            6851
3/19/24,11:41:18,012,5,test_nc1,53,blank9,0,0,1494,0
3/19/24,11:41:18,012,5,test_nc1,54,numb_comp1,30,0,1333,951448201163            951448201173
3/19/24,11:41:18,012,5,test_nc1,55,blank1,0,0,553,0
3/19/24,11:41:18,012,5,test_nc1,56,numb_comp1,38,0,1191,8662            8662
3/19/24,11:41:18,012,5,test_nc1,57,blank4,0,0,906,0
3/19/24,11:41:18,012,5,test_nc1,58,numb_comp1,38,0,713,851            851
3/19/24,11:41:18,012,5,test_nc1,59,blank5,0,0,1024,0
3/19/24,11:41:18,012,5,test_nc1,60,numb_comp1,30,0,3090,63032049608            63020949608
3/19/24,11:41:18,012,5,test_nc1,61,blank5,0,0,1024,0
3/19/24,11:41:18,012,5,test_nc1,62,numb_comp1,38,0,1463,7379311            7379311
3/19/24,11:41:18,012,5,test_nc1,63,blank7,0,0,1259,0
3/19/24,11:41:18,012,5,test_nc1,64,numb_comp1,30,0,1286,996663            996553
3/19/24,11:41:18,012,5,test_nc1,65,blank4,0,0,906,0
3/19/24,11:41:18,012,5,test_nc1,66,numb_comp1,30,0,2556,21153530            21153420
3/19/24,11:41:18,012,5,test_nc1,67,blank3,0,0,788,0
3/19/24,11:41:18,012,5,test_nc1,68,numb_comp1,38,0,697,9013            9013
3/19/24,11:41:18,012,5,test_nc1,69,blank4,0,0,906,0
3/19/24,11:41:18,012,5,test_nc1,70,numb_comp1,30,0,1216,92389075844            92389075844
3/19/24,11:41:18,012,5,test_nc1,71,blank2,0,0,671,0
3/19/24,11:41:18,012,5,test_nc1,72,numb_comp1,30,0,1098,6318            6418
3/19/24,11:41:18,012,5,test_nc1,73,blank6,0,0,1141,0
3/19/24,11:41:18,012,5,test_nc1,74,numb_comp1,38,0,1062,62056            62056
3/19/24,11:41:18,012,5,test_nc1,75,blank2,0,0,671,0
3/19/24,11:41:18,012,5,test_nc1,76,numb_comp1,30,0,1616,168659794            168660904
3/19/24,11:41:18,012,5,test_nc1,77,blank6,0,0,1141,0
3/19/24,11:41:18,012,5,test_nc1,78,numb_comp1,38,0,1445,658697            658697
3/19/24,11:41:18,012,5,test_nc1,79,blank10,0,0,1612,0
3/19/24,11:41:18,012,5,test_nc1,80,numb_comp1,30,0,3455,2243565304            2243565304
3/19/24,11:41:18,012,6,test_nc2,1,blank_1st,0,0,1500,0
3/19/24,11:41:18,012,6,test_nc2,2,numb_comp2,30,0,1140,610459            611559
3/19/24,11:41:18,012,6,test_nc2,3,blank6,0,0,1141,0
3/19/24,11:41:18,012,6,test_nc2,4,numb_comp2,38,0,998,75538            75538
3/19/24,11:41:18,012,6,test_nc2,5,blank5,0,0,1024,0
3/19/24,11:41:18,012,6,test_nc2,6,numb_comp2,38,0,667,2089            2089
3/19/24,11:41:18,012,6,test_nc2,7,blank7,0,0,1259,0
3/19/24,11:41:18,012,6,test_nc2,8,numb_comp2,38,0,1444,155121            155121
3/19/24,11:41:18,012,6,test_nc2,9,blank8,0,0,1376,0
3/19/24,11:41:18,012,6,test_nc2,10,numb_comp2,38,0,2039,1981094            1981094
3/19/24,11:41:18,012,6,test_nc2,11,blank10,0,0,1612,0
3/19/24,11:41:18,012,6,test_nc2,12,numb_comp2,30,0,1600,69960347            69960457
3/19/24,11:41:18,012,6,test_nc2,13,blank9,0,0,1494,0
3/19/24,11:41:18,012,6,test_nc2,14,numb_comp2,30,0,2112,29792117073            29792105973
3/19/24,11:41:18,012,6,test_nc2,15,blank10,0,0,1612,0
3/19/24,11:41:18,012,6,test_nc2,16,numb_comp2,38,0,1405,278233            278233
3/19/24,11:41:18,012,6,test_nc2,17,blank6,0,0,1141,0
3/19/24,11:41:18,012,6,test_nc2,18,numb_comp2,30,0,1012,24068            24168
3/19/24,11:41:18,012,6,test_nc2,19,blank3,0,0,788,0
3/19/24,11:41:18,012,6,test_nc2,20,numb_comp2,30,0,1331,4215469941            4215469941
3/19/24,11:41:18,012,6,test_nc2,21,blank3,0,0,788,0
3/19/24,11:41:18,012,6,test_nc2,22,numb_comp2,30,0,1275,897529167144            897529167144
3/19/24,11:41:18,012,6,test_nc2,23,blank7,0,0,1259,0
3/19/24,11:41:18,012,6,test_nc2,24,numb_comp2,38,0,6523,391317180            391317180
3/19/24,11:41:18,012,6,test_nc2,25,blank10,0,0,1612,0
3/19/24,11:41:18,012,6,test_nc2,26,numb_comp2,38,0,2023,696            695
3/19/24,11:41:18,012,6,test_nc2,27,blank4,0,0,906,0
3/19/24,11:41:18,012,6,test_nc2,28,numb_comp2,30,0,1870,9450584455            9461684455
3/19/24,11:41:18,012,6,test_nc2,29,blank8,0,0,1376,0
3/19/24,11:41:18,012,6,test_nc2,30,numb_comp2,30,0,2152,619165564            619164454
3/19/24,11:41:18,012,6,test_nc2,31,blank9,0,0,1494,0
3/19/24,11:41:18,012,6,test_nc2,32,numb_comp2,38,0,4576,762115347            762115347
3/19/24,11:41:18,012,6,test_nc2,33,blank1,0,0,553,0
3/19/24,11:41:18,012,6,test_nc2,34,numb_comp2,30,0,1650,8197739            8197849
3/19/24,11:41:18,012,6,test_nc2,35,blank4,0,0,906,0
3/19/24,11:41:18,012,6,test_nc2,36,numb_comp2,38,0,720,92739            92739
3/19/24,11:41:18,012,6,test_nc2,37,blank2,0,0,671,0
3/19/24,11:41:18,012,6,test_nc2,38,numb_comp2,38,0,1111,55824            55834
3/19/24,11:41:18,012,6,test_nc2,39,blank5,0,0,1024,0
3/19/24,11:41:18,012,6,test_nc2,40,numb_comp2,38,0,2424,6168121946            6168121946
3/19/24,11:41:18,012,6,test_nc2,41,blank8,0,0,1376,0
3/19/24,11:41:18,012,6,test_nc2,42,numb_comp2,30,0,962,1048            1038
3/19/24,11:41:18,012,6,test_nc2,43,blank1,0,0,553,0
3/19/24,11:41:18,012,6,test_nc2,44,numb_comp2,30,0,2012,16761296358            16761296358
3/19/24,11:41:18,012,6,test_nc2,45,blank4,0,0,906,0
3/19/24,11:41:18,012,6,test_nc2,46,numb_comp2,30,0,2147,628605363062            628605473062
3/19/24,11:41:18,012,6,test_nc2,47,blank9,0,0,1494,0
3/19/24,11:41:18,012,6,test_nc2,48,numb_comp2,30,0,2221,657973458            657962358
3/19/24,11:41:18,012,6,test_nc2,49,blank6,0,0,1141,0
3/19/24,11:41:18,012,6,test_nc2,50,numb_comp2,30,0,1953,74246568316            74246568316
3/19/24,11:41:18,012,6,test_nc2,51,blank9,0,0,1494,0
3/19/24,11:41:18,012,6,test_nc2,52,numb_comp2,30,0,891,482            482
3/19/24,11:41:18,012,6,test_nc2,53,blank3,0,0,788,0
3/19/24,11:41:18,012,6,test_nc2,54,numb_comp2,30,0,4837,904679492412            904679492402
3/19/24,11:41:18,012,6,test_nc2,55,blank5,0,0,1024,0
3/19/24,11:41:18,012,6,test_nc2,56,numb_comp2,38,0,2073,18676209            18676209
3/19/24,11:41:18,012,6,test_nc2,57,blank7,0,0,1259,0
3/19/24,11:41:18,012,6,test_nc2,58,numb_comp2,30,0,1215,87791454            87792554
3/19/24,11:41:18,012,6,test_nc2,59,blank1,0,0,553,0
3/19/24,11:41:18,012,6,test_nc2,60,numb_comp2,38,0,750,146            146
3/19/24,11:41:18,012,6,test_nc2,61,blank10,0,0,1612,0
3/19/24,11:41:18,012,6,test_nc2,62,numb_comp2,30,0,1197,444008            444118
3/19/24,11:41:18,012,6,test_nc2,63,blank6,0,0,1141,0
3/19/24,11:41:18,012,6,test_nc2,64,numb_comp2,30,0,2885,22308208            22308208
3/19/24,11:41:18,012,6,test_nc2,65,blank2,0,0,671,0
3/19/24,11:41:18,012,6,test_nc2,66,numb_comp2,38,0,3304,4334416            4334416
3/19/24,11:41:18,012,6,test_nc2,67,blank2,0,0,671,0
3/19/24,11:41:18,012,6,test_nc2,68,numb_comp2,30,0,1379,7648791            7649891
3/19/24,11:41:18,012,6,test_nc2,69,blank1,0,0,553,0
3/19/24,11:41:18,012,6,test_nc2,70,numb_comp2,30,0,812,802            801
3/19/24,11:41:18,012,6,test_nc2,71,blank4,0,0,906,0
3/19/24,11:41:18,012,6,test_nc2,72,numb_comp2,30,0,910,3980            3880
3/19/24,11:41:18,012,6,test_nc2,73,blank5,0,0,1024,0
3/19/24,11:41:18,012,6,test_nc2,74,numb_comp2,30,0,1783,6875766673            6876876673
3/19/24,11:41:18,012,6,test_nc2,75,blank7,0,0,1259,0
3/19/24,11:41:18,012,6,test_nc2,76,numb_comp2,38,0,1273,7321            7321
3/19/24,11:41:18,012,6,test_nc2,77,blank3,0,0,788,0
3/19/24,11:41:18,012,6,test_nc2,78,numb_comp2,30,0,1340,58891903224            59002903224
3/19/24,11:41:18,012,6,test_nc2,79,blank8,0,0,1376,0
3/19/24,11:41:18,012,6,test_nc2,80,numb_comp2,30,0,1796,656607640290            656607640290
3/19/24,11:41:18,012,7,SMf1_Abr,1,SMf_Abr12,SMf_Pos1,0,4258,
3/19/24,11:41:18,012,7,SMf1_Abr,2,SMf_Abr2,SMf_Pos11,1,5959,
3/19/24,11:41:18,012,7,SMf1_Abr,3,SMf_Abr4,h13,0,7684,b
3/19/24,11:41:18,012,7,SMf1_Abr,4,SMf_Abr3,k14,1,2178,b
3/19/24,11:41:18,012,7,SMf1_Abr,5,SMf_Abr8,SMf_Pos9,0,4415,
3/19/24,11:41:18,012,7,SMf1_Abr,6,SMf_Abr6,p16,0,2222,b
3/19/24,11:41:18,012,7,SMf1_Abr,7,SMf_Abr1,b10,1,2920,b
3/19/24,11:41:18,012,7,SMf1_Abr,8,SMf_Abr10,SMf_Pos7,0,2510,
3/19/24,11:41:18,012,7,SMf1_Abr,9,SMf_Abr11,SMf_Pos7,0,5125,
3/19/24,11:41:18,012,7,SMf1_Abr,10,SMf_Abr9,q17,0,2110,b
3/19/24,11:41:18,012,7,SMf1_Abr,11,SMf_Abr7,x20,1,4390,b
3/19/24,11:41:18,012,7,SMf1_Abr,12,SMf_Abr5,SMf_Pos9,0,2470,
3/19/24,13:28:19,017,1,SMf1Practice,1,achtung,0,0,1700,Attention!
3/19/24,13:28:19,017,1,SMf1Practice,2,SMf1_P_T1,0,0,2800,a
3/19/24,13:28:19,017,1,SMf1Practice,3,SMf1_P_T2,0,0,2800,i
3/19/24,13:28:19,017,1,SMf1Practice,4,SMf1_P_T3,0,0,2800,u
3/19/24,13:28:19,017,2,SMf1Practice_Abr,1,SMf1_P_Abr1,SMf_Pos9,1,3003,
3/19/24,13:28:19,017,2,SMf1Practice_Abr,2,SMf1_P_Abr2,a11,0,7360,u
3/19/24,13:28:19,017,2,SMf1Practice_Abr,3,SMf1_P_Abr3,SMf_Pos6,0,2390,
3/19/24,13:28:19,017,3,SMf1,1,achtung,0,0,1700,Attention!
3/19/24,13:28:19,017,3,SMf1,2,SMf1_T1,0,0,2800,b
3/19/24,13:28:19,017,3,SMf1,3,SMf1_T2,0,0,2800,m
3/19/24,13:28:19,017,3,SMf1,4,SMf1_T3,0,0,2800,k
3/19/24,13:28:19,017,3,SMf1,5,SMf1_T4,0,0,2800,c
3/19/24,13:28:19,017,3,SMf1,6,SMf1_T5,0,0,2800,y
3/19/24,13:28:19,017,3,SMf1,7,SMf1_T6,0,0,2800,h
3/19/24,13:28:19,017,3,SMf1,8,SMf1_T7,0,0,2800,x
3/19/24,13:28:19,017,3,SMf1,9,SMf1_T8,0,0,2800,p
3/19/24,13:28:19,017,3,SMf1,10,SMf1_T9,0,0,2800,t
3/19/24,13:28:19,017,3,SMf1,11,SMf1_T10,0,0,2800,d
3/19/24,13:28:19,017,3,SMf1,12,SMf1_T11,0,0,2800,q
3/19/24,13:28:19,017,3,SMf1,13,SMf1_T12,0,0,2800,v
3/19/24,13:28:19,017,4,prac_nc,1,blank_1st,0,0,1500,0
3/19/24,13:28:19,017,4,prac_nc,2,pract_nc_incorrect,30,1,51246,658331            656331
3/19/24,13:28:19,017,4,prac_nc,3,blank1,0,0,553,0
3/19/24,13:28:19,017,4,prac_nc,4,pract_nc_correct,38,1,2226,438            438
3/19/24,13:28:19,017,4,prac_nc,5,blank2,0,0,671,0
3/19/24,13:28:19,017,4,prac_nc,6,pract_nc_incorrect,30,1,17504,73845            73855
3/19/24,13:28:19,017,4,prac_nc,7,blank3,0,0,788,0
3/19/24,13:28:19,017,4,prac_nc,8,pract_nc_incorrect,30,1,6526,4821459            4814259
3/19/24,13:28:19,017,4,prac_nc,9,blank7,0,0,1259,0
3/19/24,13:28:19,017,4,prac_nc,10,pract_nc_correct,38,1,1719,659            659
3/19/24,13:28:19,017,4,prac_nc,11,blank6,0,0,1141,0
3/19/24,13:28:19,017,4,prac_nc,12,pract_nc_correct,38,1,2087,1624            1624
3/19/24,13:28:19,017,5,test_nc1,1,blank_1st,0,0,1500,0
3/19/24,13:28:19,017,5,test_nc1,2,numb_comp1,38,0,3617,84470088            84470088
3/19/24,13:28:19,017,5,test_nc1,3,blank1,0,0,553,0
3/19/24,13:28:19,017,5,test_nc1,4,numb_comp1,30,0,3859,822813            821713
3/19/24,13:28:19,017,5,test_nc1,5,blank5,0,0,1024,0
3/19/24,13:28:19,017,5,test_nc1,6,numb_comp1,38,0,3687,167390            167390
3/19/24,13:28:19,017,5,test_nc1,7,blank3,0,0,788,0
3/19/24,13:28:19,017,5,test_nc1,8,numb_comp1,38,0,4285,3373597617            3373597617
3/19/24,13:28:19,017,5,test_nc1,9,blank2,0,0,671,0
3/19/24,13:28:19,017,5,test_nc1,10,numb_comp1,38,0,1206,869            869
3/19/24,13:28:19,017,5,test_nc1,11,blank6,0,0,1141,0
3/19/24,13:28:19,017,5,test_nc1,12,numb_comp1,38,0,21974,946154158            946154158
3/19/24,13:28:19,017,5,test_nc1,13,blank10,0,0,1612,0
3/19/24,13:28:19,017,5,test_nc1,14,numb_comp1,30,0,6167,744597632877            744598742877
3/19/24,13:28:19,017,5,test_nc1,15,blank7,0,0,1259,0
3/19/24,13:28:19,017,5,test_nc1,16,numb_comp1,30,0,4201,7433615            7432515
3/19/24,13:28:19,017,5,test_nc1,17,blank3,0,0,788,0
3/19/24,13:28:19,017,5,test_nc1,18,numb_comp1,30,0,8817,76672            76572
3/19/24,13:28:19,017,5,test_nc1,19,blank9,0,0,1494,0
3/19/24,13:28:19,017,5,test_nc1,20,numb_comp1,38,0,25497,63038506            63038506
3/19/24,13:28:19,017,5,test_nc1,21,blank1,0,0,553,0
3/19/24,13:28:19,017,5,test_nc1,22,numb_comp1,38,0,13660,338242381215            338242381215
3/19/24,13:28:19,017,5,test_nc1,23,blank1,0,0,553,0
3/19/24,13:28:19,017,5,test_nc1,24,numb_comp1,30,0,5695,17093622            17092522
3/19/24,13:28:19,017,5,test_nc1,25,blank8,0,0,1376,0
3/19/24,13:28:19,017,5,test_nc1,26,numb_comp1,30,0,3935,89994            89984
3/19/24,13:28:19,017,5,test_nc1,27,blank10,0,0,1612,0
3/19/24,13:28:19,017,5,test_nc1,28,numb_comp1,30,0,5208,8946221            8946111
3/19/24,13:28:19,017,5,test_nc1,29,blank2,0,0,671,0
3/19/24,13:28:19,017,5,test_nc1,30,numb_comp1,30,0,5954,411205238            412315238
3/19/24,13:28:19,017,5,test_nc1,31,blank5,0,0,1024,0
3/19/24,13:28:19,017,5,test_nc1,32,numb_comp1,30,0,1719,160            161
3/19/24,13:28:19,017,5,test_nc1,33,blank3,0,0,788,0
3/19/24,13:28:19,017,5,test_nc1,34,numb_comp1,38,0,13671,96680137317            96680137317
3/19/24,13:28:19,017,5,test_nc1,35,blank5,0,0,1024,0
3/19/24,13:28:19,017,5,test_nc1,36,numb_comp1,38,0,23239,100453190            100453190
3/19/24,13:28:19,017,5,test_nc1,37,blank4,0,0,906,0
3/19/24,13:28:19,017,5,test_nc1,38,numb_comp1,30,0,9378,3633616033            3633627133
3/19/24,13:28:19,017,5,test_nc1,39,blank4,0,0,906,0
3/19/24,13:28:19,017,5,test_nc1,40,numb_comp1,38,0,19619,674722052809            674722052809
3/19/24,13:28:19,017,5,test_nc1,41,blank2,0,0,671,0
3/19/24,13:28:19,017,5,test_nc1,42,numb_comp1,30,0,13639,4803720325            4802610325
3/19/24,13:28:19,017,5,test_nc1,43,blank9,0,0,1494,0
3/19/24,13:28:19,017,5,test_nc1,44,numb_comp1,30,0,6229,98514271399            98403271399
3/19/24,13:28:19,017,5,test_nc1,45,blank6,0,0,1141,0
3/19/24,13:28:19,017,5,test_nc1,46,numb_comp1,38,0,10897,4194957            4194957
3/19/24,13:28:19,017,5,test_nc1,47,blank9,0,0,1494,0
3/19/24,13:28:19,017,5,test_nc1,48,numb_comp1,38,0,3258,79948            79948
3/19/24,13:28:19,017,5,test_nc1,49,blank9,0,0,1494,0
3/19/24,13:28:19,017,5,test_nc1,50,numb_comp1,30,0,1716,754            755
3/19/24,13:28:19,017,5,test_nc1,51,blank8,0,0,1376,0
3/19/24,13:28:19,017,5,test_nc1,52,numb_comp1,30,0,13204,6841            6851
3/19/24,13:28:19,017,5,test_nc1,53,blank7,0,0,1259,0
3/19/24,13:28:19,017,5,test_nc1,54,numb_comp1,30,0,5589,951448201163            951448201173
3/19/24,13:28:19,017,5,test_nc1,55,blank6,0,0,1141,0
3/19/24,13:28:19,017,5,test_nc1,56,numb_comp1,38,0,3228,8662            8662
3/19/24,13:28:19,017,5,test_nc1,57,blank4,0,0,906,0
3/19/24,13:28:19,017,5,test_nc1,58,numb_comp1,38,0,1744,851            851
3/19/24,13:28:19,017,5,test_nc1,59,blank10,0,0,1612,0
3/19/24,13:28:19,017,5,test_nc1,60,numb_comp1,30,0,4709,63032049608            63020949608
3/19/24,13:28:19,017,5,test_nc1,61,blank7,0,0,1259,0
3/19/24,13:28:19,017,5,test_nc1,62,numb_comp1,38,0,4676,7379311            7379311
3/19/24,13:28:19,017,5,test_nc1,63,blank5,0,0,1024,0
3/19/24,13:28:19,017,5,test_nc1,64,numb_comp1,30,0,7646,996663            996553
3/19/24,13:28:19,017,5,test_nc1,65,blank3,0,0,788,0
3/19/24,13:28:19,017,5,test_nc1,66,numb_comp1,30,0,7293,21153530            21153420
3/19/24,13:28:19,017,5,test_nc1,67,blank8,0,0,1376,0
3/19/24,13:28:19,017,5,test_nc1,68,numb_comp1,30,0,1323,9013            9013
3/19/24,13:28:19,017,5,test_nc1,69,blank10,0,0,1612,0
3/19/24,13:28:19,017,5,test_nc1,70,numb_comp1,38,0,11386,92389075844            92389075844
3/19/24,13:28:19,017,5,test_nc1,71,blank2,0,0,671,0
3/19/24,13:28:19,017,5,test_nc1,72,numb_comp1,30,0,2649,6318            6418
3/19/24,13:28:19,017,5,test_nc1,73,blank4,0,0,906,0
3/19/24,13:28:19,017,5,test_nc1,74,numb_comp1,38,0,15900,62056            62056
3/19/24,13:28:19,017,5,test_nc1,75,blank1,0,0,553,0
3/19/24,13:28:19,017,5,test_nc1,76,numb_comp1,30,0,8450,168659794            168660904
3/19/24,13:28:19,017,5,test_nc1,77,blank7,0,0,1259,0
3/19/24,13:28:19,017,5,test_nc1,78,numb_comp1,38,0,13299,658697            658697
3/19/24,13:28:19,017,5,test_nc1,79,blank6,0,0,1141,0
3/19/24,13:28:19,017,5,test_nc1,80,numb_comp1,38,0,13406,2243565304            2243565304
3/19/24,13:28:19,017,6,test_nc2,1,blank_1st,0,0,1500,0
3/19/24,13:28:19,017,6,test_nc2,2,numb_comp2,30,0,7153,610459            611559
3/19/24,13:28:19,017,6,test_nc2,3,blank1,0,0,553,0
3/19/24,13:28:19,017,6,test_nc2,4,numb_comp2,38,0,3303,75538            75538
3/19/24,13:28:19,017,6,test_nc2,5,blank2,0,0,671,0
3/19/24,13:28:19,017,6,test_nc2,6,numb_comp2,38,0,2250,2089            2089
3/19/24,13:28:19,017,6,test_nc2,7,blank8,0,0,1376,0
3/19/24,13:28:19,017,6,test_nc2,8,numb_comp2,38,0,2036,155121            155121
3/19/24,13:28:19,017,6,test_nc2,9,blank8,0,0,1376,0
3/19/24,13:28:19,017,6,test_nc2,10,numb_comp2,38,0,13614,1981094            1981094
3/19/24,13:28:19,017,6,test_nc2,11,blank1,0,0,553,0
3/19/24,13:28:19,017,6,test_nc2,12,numb_comp2,30,0,20532,69960347            69960457
3/19/24,13:28:19,017,6,test_nc2,13,blank5,0,0,1024,0
3/19/24,13:28:19,017,6,test_nc2,14,numb_comp2,30,0,10962,29792117073            29792105973
3/19/24,13:28:19,017,6,test_nc2,15,blank6,0,0,1141,0
3/19/24,13:28:19,017,6,test_nc2,16,numb_comp2,38,0,3535,278233            278233
3/19/24,13:28:19,017,6,test_nc2,17,blank10,0,0,1612,0
3/19/24,13:28:19,017,6,test_nc2,18,numb_comp2,30,0,3225,24068            24168
3/19/24,13:28:19,017,6,test_nc2,19,blank9,0,0,1494,0
3/19/24,13:28:19,017,6,test_nc2,20,numb_comp2,38,0,11061,4215469941            4215469941
3/19/24,13:28:19,017,6,test_nc2,21,blank7,0,0,1259,0
3/19/24,13:28:19,017,6,test_nc2,22,numb_comp2,38,0,6528,897529167144            897529167144
3/19/24,13:28:19,017,6,test_nc2,23,blank9,0,0,1494,0
3/19/24,13:28:19,017,6,test_nc2,24,numb_comp2,38,0,10025,391317180            391317180
3/19/24,13:28:19,017,6,test_nc2,25,blank10,0,0,1612,0
3/19/24,13:28:19,017,6,test_nc2,26,numb_comp2,30,0,2841,696            695
3/19/24,13:28:19,017,6,test_nc2,27,blank2,0,0,671,0
3/19/24,13:28:19,017,6,test_nc2,28,numb_comp2,30,0,9496,9450584455            9461684455
3/19/24,13:28:19,017,6,test_nc2,29,blank6,0,0,1141,0
3/19/24,13:28:19,017,6,test_nc2,30,numb_comp2,30,0,4578,619165564            619164454
3/19/24,13:28:19,017,6,test_nc2,31,blank1,0,0,553,0
3/19/24,13:28:19,017,6,test_nc2,32,numb_comp2,38,0,8572,762115347            762115347
3/19/24,13:28:19,017,6,test_nc2,33,blank7,0,0,1259,0
3/19/24,13:28:19,017,6,test_nc2,34,numb_comp2,30,0,2817,8197739            8197849
3/19/24,13:28:19,017,6,test_nc2,35,blank10,0,0,1612,0
3/19/24,13:28:19,017,6,test_nc2,36,numb_comp2,38,0,3673,92739            92739
3/19/24,13:28:19,017,6,test_nc2,37,blank8,0,0,1376,0
3/19/24,13:28:19,017,6,test_nc2,38,numb_comp2,30,0,3047,55824            55834
3/19/24,13:28:19,017,6,test_nc2,39,blank5,0,0,1024,0
3/19/24,13:28:19,017,6,test_nc2,40,numb_comp2,38,0,37333,6168121946            6168121946
3/19/24,13:28:19,017,6,test_nc2,41,blank5,0,0,1024,0
3/19/24,13:28:19,017,6,test_nc2,42,numb_comp2,30,0,2409,1048            1038
3/19/24,13:28:19,017,6,test_nc2,43,blank4,0,0,906,0
3/19/24,13:28:19,017,6,test_nc2,44,numb_comp2,38,0,11464,16761296358            16761296358
3/19/24,13:28:19,017,6,test_nc2,45,blank2,0,0,671,0
3/19/24,13:28:19,017,6,test_nc2,46,numb_comp2,30,0,6635,628605363062            628605473062
3/19/24,13:28:19,017,6,test_nc2,47,blank4,0,0,906,0
3/19/24,13:28:19,017,6,test_nc2,48,numb_comp2,30,0,236918,657973458            657962358
3/19/24,13:28:19,017,6,test_nc2,49,blank6,0,0,1141,0
3/19/24,13:28:19,017,6,test_nc2,50,numb_comp2,38,0,68073,74246568316            74246568316
3/19/24,13:28:19,017,6,test_nc2,51,blank5,0,0,1024,0
3/19/24,13:28:19,017,6,test_nc2,52,numb_comp2,38,0,1761,482            482
3/19/24,13:28:19,017,6,test_nc2,53,blank1,0,0,553,0
3/19/24,13:28:19,017,6,test_nc2,54,numb_comp2,30,0,2457,904679492412            904679492402
3/19/24,13:28:19,017,6,test_nc2,55,blank9,0,0,1494,0
3/19/24,13:28:19,017,6,test_nc2,56,numb_comp2,30,0,16365,18676209            18676209
3/19/24,13:28:19,017,6,test_nc2,57,blank6,0,0,1141,0
3/19/24,13:28:19,017,6,test_nc2,58,numb_comp2,30,0,37822,87791454            87792554
3/19/24,13:28:19,017,6,test_nc2,59,blank4,0,0,906,0
3/19/24,13:28:19,017,6,test_nc2,60,numb_comp2,38,0,2315,146            146
3/19/24,13:28:19,017,6,test_nc2,61,blank2,0,0,671,0
3/19/24,13:28:19,017,6,test_nc2,62,numb_comp2,30,0,2024,444008            444118
3/19/24,13:28:19,017,6,test_nc2,63,blank4,0,0,906,0
3/19/24,13:28:19,017,6,test_nc2,64,numb_comp2,30,0,8094,22308208            22308208
3/19/24,13:28:19,017,6,test_nc2,65,blank8,0,0,1376,0
3/19/24,13:28:19,017,6,test_nc2,66,numb_comp2,38,0,4010,4334416            4334416
3/19/24,13:28:19,017,6,test_nc2,67,blank3,0,0,788,0
3/19/24,13:28:19,017,6,test_nc2,68,numb_comp2,30,0,17074,7648791            7649891
3/19/24,13:28:19,017,6,test_nc2,69,blank3,0,0,788,0
3/19/24,13:28:19,017,6,test_nc2,70,numb_comp2,30,0,12556,802            801
3/19/24,13:28:19,017,6,test_nc2,71,blank7,0,0,1259,0
3/19/24,13:28:19,017,6,test_nc2,72,numb_comp2,30,0,4465,3980            3880
3/19/24,13:28:19,017,6,test_nc2,73,blank3,0,0,788,0
3/19/24,13:28:19,017,6,test_nc2,74,numb_comp2,30,0,3014,6875766673            6876876673
3/19/24,13:28:19,017,6,test_nc2,75,blank3,0,0,788,0
3/19/24,13:28:19,017,6,test_nc2,76,numb_comp2,38,0,2680,7321            7321
3/19/24,13:28:19,017,6,test_nc2,77,blank10,0,0,1612,0
3/19/24,13:28:19,017,6,test_nc2,78,numb_comp2,30,0,4286,58891903224            59002903224
3/19/24,13:28:19,017,6,test_nc2,79,blank7,0,0,1259,0
3/19/24,13:28:19,017,6,test_nc2,80,numb_comp2,38,0,37278,656607640290            656607640290
3/19/24,13:28:19,017,7,SMf1_Abr,1,SMf_Abr12,SMf_Pos2,0,7227,
3/19/24,13:28:19,017,7,SMf1_Abr,2,SMf_Abr2,SMf_Pos3,0,1403,
3/19/24,13:28:19,017,7,SMf1_Abr,3,SMf_Abr4,p16,0,4249,b
3/19/24,13:28:19,017,7,SMf1_Abr,4,SMf_Abr3,k14,1,1495,b
3/19/24,13:28:19,017,7,SMf1_Abr,5,SMf_Abr8,SMf_Pos11,0,2784,
3/19/24,13:28:19,017,7,SMf1_Abr,6,SMf_Abr6,x20,0,2852,b
3/19/24,13:28:19,017,7,SMf1_Abr,7,SMf_Abr1,k14,0,1541,b
3/19/24,13:28:19,017,7,SMf1_Abr,8,SMf_Abr10,SMf_Pos4,0,1620,
3/19/24,13:28:19,017,7,SMf1_Abr,9,SMf_Abr11,SMf_Pos3,0,1136,
3/19/24,13:28:19,017,7,SMf1_Abr,10,SMf_Abr9,d12,0,2049,b
3/19/24,13:28:19,017,7,SMf1_Abr,11,SMf_Abr7,t18,0,1204,b
3/19/24,13:28:19,017,7,SMf1_Abr,12,SMf_Abr5,SMf_Pos2,0,4577,
3/19/24,16:35:33,018,1,SMf1Practice,1,achtung,0,0,1700,Attention!
3/19/24,16:35:33,018,1,SMf1Practice,2,SMf1_P_T1,0,0,2800,a
3/19/24,16:35:33,018,1,SMf1Practice,3,SMf1_P_T2,0,0,2800,i
3/19/24,16:35:33,018,1,SMf1Practice,4,SMf1_P_T3,0,0,2800,u
3/19/24,16:35:33,018,2,SMf1Practice_Abr,1,SMf1_P_Abr1,SMf_Pos9,1,7547,
3/19/24,16:35:33,018,2,SMf1Practice_Abr,2,SMf1_P_Abr2,i12,1,8409,u
3/19/24,16:35:33,018,2,SMf1Practice_Abr,3,SMf1_P_Abr3,SMf_Pos12,1,2922,
3/19/24,16:35:33,018,3,SMf1,1,achtung,0,0,1700,Attention!
3/19/24,16:35:33,018,3,SMf1,2,SMf1_T1,0,0,2800,b
3/19/24,16:35:33,018,3,SMf1,3,SMf1_T2,0,0,2800,m
3/19/24,16:35:33,018,3,SMf1,4,SMf1_T3,0,0,2800,k
3/19/24,16:35:33,018,3,SMf1,5,SMf1_T4,0,0,2800,c
3/19/24,16:35:33,018,3,SMf1,6,SMf1_T5,0,0,2800,y
3/19/24,16:35:33,018,3,SMf1,7,SMf1_T6,0,0,2800,h
3/19/24,16:35:33,018,3,SMf1,8,SMf1_T7,0,0,2800,x
3/19/24,16:35:33,018,3,SMf1,9,SMf1_T8,0,0,2800,p
3/19/24,16:35:33,018,3,SMf1,10,SMf1_T9,0,0,2800,t
3/19/24,16:35:33,018,3,SMf1,11,SMf1_T10,0,0,2800,d
3/19/24,16:35:33,018,3,SMf1,12,SMf1_T11,0,0,2800,q
3/19/24,16:35:33,018,3,SMf1,13,SMf1_T12,0,0,2800,v
3/19/24,16:35:33,018,4,prac_nc,1,blank_1st,0,0,1500,0
3/19/24,16:35:33,018,4,prac_nc,2,pract_nc_correct,38,1,25926,438            438
3/19/24,16:35:33,018,4,prac_nc,3,blank9,0,0,1494,0
3/19/24,16:35:33,018,4,prac_nc,4,pract_nc_correct,38,1,4900,1624            1624
3/19/24,16:35:33,018,4,prac_nc,5,blank10,0,0,1612,0
3/19/24,16:35:33,018,4,prac_nc,6,pract_nc_incorrect,30,1,2505,73845            73855
3/19/24,16:35:33,018,4,prac_nc,7,blank7,0,0,1259,0
3/19/24,16:35:33,018,4,prac_nc,8,pract_nc_correct,38,1,1059,659            659
3/19/24,16:35:33,018,4,prac_nc,9,blank3,0,0,788,0
3/19/24,16:35:33,018,4,prac_nc,10,pract_nc_incorrect,30,1,2197,658331            656331
3/19/24,16:35:33,018,4,prac_nc,11,blank8,0,0,1376,0
3/19/24,16:35:33,018,4,prac_nc,12,pract_nc_incorrect,30,1,2903,4821459            4814259
3/19/24,16:35:33,018,5,test_nc1,1,blank_1st,0,0,1500,0
3/19/24,16:35:33,018,5,test_nc1,2,numb_comp1,38,0,3128,84470088            84470088
3/19/24,16:35:33,018,5,test_nc1,3,blank3,0,0,788,0
3/19/24,16:35:33,018,5,test_nc1,4,numb_comp1,30,0,2189,822813            821713
3/19/24,16:35:33,018,5,test_nc1,5,blank1,0,0,553,0
3/19/24,16:35:33,018,5,test_nc1,6,numb_comp1,38,0,2067,167390            167390
3/19/24,16:35:33,018,5,test_nc1,7,blank5,0,0,1024,0
3/19/24,16:35:33,018,5,test_nc1,8,numb_comp1,38,0,3210,3373597617            3373597617
3/19/24,16:35:33,018,5,test_nc1,9,blank8,0,0,1376,0
3/19/24,16:35:33,018,5,test_nc1,10,numb_comp1,38,0,1396,869            869
3/19/24,16:35:33,018,5,test_nc1,11,blank8,0,0,1376,0
3/19/24,16:35:33,018,5,test_nc1,12,numb_comp1,38,0,3770,946154158            946154158
3/19/24,16:35:33,018,5,test_nc1,13,blank1,0,0,553,0
3/19/24,16:35:33,018,5,test_nc1,14,numb_comp1,30,0,2934,744597632877            744598742877
3/19/24,16:35:33,018,5,test_nc1,15,blank5,0,0,1024,0
3/19/24,16:35:33,018,5,test_nc1,16,numb_comp1,30,0,1793,7433615            7432515
3/19/24,16:35:33,018,5,test_nc1,17,blank7,0,0,1259,0
3/19/24,16:35:33,018,5,test_nc1,18,numb_comp1,30,0,1123,76672            76572
3/19/24,16:35:33,018,5,test_nc1,19,blank3,0,0,788,0
3/19/24,16:35:33,018,5,test_nc1,20,numb_comp1,38,0,1925,63038506            63038506
3/19/24,16:35:33,018,5,test_nc1,21,blank10,0,0,1612,0
3/19/24,16:35:33,018,5,test_nc1,22,numb_comp1,38,0,4674,338242381215            338242381215
3/19/24,16:35:33,018,5,test_nc1,23,blank2,0,0,671,0
3/19/24,16:35:33,018,5,test_nc1,24,numb_comp1,30,0,2203,17093622            17092522
3/19/24,16:35:33,018,5,test_nc1,25,blank9,0,0,1494,0
3/19/24,16:35:33,018,5,test_nc1,26,numb_comp1,30,0,1890,89994            89984
3/19/24,16:35:33,018,5,test_nc1,27,blank2,0,0,671,0
3/19/24,16:35:33,018,5,test_nc1,28,numb_comp1,30,0,2183,8946221            8946111
3/19/24,16:35:33,018,5,test_nc1,29,blank4,0,0,906,0
3/19/24,16:35:33,018,5,test_nc1,30,numb_comp1,30,0,2191,411205238            412315238
3/19/24,16:35:33,018,5,test_nc1,31,blank6,0,0,1141,0
3/19/24,16:35:33,018,5,test_nc1,32,numb_comp1,30,0,1309,160            161
3/19/24,16:35:33,018,5,test_nc1,33,blank1,0,0,553,0
3/19/24,16:35:33,018,5,test_nc1,34,numb_comp1,38,0,3673,96680137317            96680137317
3/19/24,16:35:33,018,5,test_nc1,35,blank3,0,0,788,0
3/19/24,16:35:33,018,5,test_nc1,36,numb_comp1,38,0,2951,100453190            100453190
3/19/24,16:35:33,018,5,test_nc1,37,blank10,0,0,1612,0
3/19/24,16:35:33,018,5,test_nc1,38,numb_comp1,30,0,2097,3633616033            3633627133
3/19/24,16:35:33,018,5,test_nc1,39,blank4,0,0,906,0
3/19/24,16:35:33,018,5,test_nc1,40,numb_comp1,38,0,4068,674722052809            674722052809
3/19/24,16:35:33,018,5,test_nc1,41,blank6,0,0,1141,0
3/19/24,16:35:33,018,5,test_nc1,42,numb_comp1,30,0,1836,4803720325            4802610325
3/19/24,16:35:33,018,5,test_nc1,43,blank6,0,0,1141,0
3/19/24,16:35:33,018,5,test_nc1,44,numb_comp1,30,0,1648,98514271399            98403271399
3/19/24,16:35:33,018,5,test_nc1,45,blank9,0,0,1494,0
3/19/24,16:35:33,018,5,test_nc1,46,numb_comp1,30,0,2639,4194957            4194957
3/19/24,16:35:33,018,5,test_nc1,47,blank4,0,0,906,0
3/19/24,16:35:33,018,5,test_nc1,48,numb_comp1,38,0,2436,79948            79948
3/19/24,16:35:33,018,5,test_nc1,49,blank9,0,0,1494,0
3/19/24,16:35:33,018,5,test_nc1,50,numb_comp1,30,0,991,754            755
3/19/24,16:35:33,018,5,test_nc1,51,blank8,0,0,1376,0
3/19/24,16:35:33,018,5,test_nc1,52,numb_comp1,30,0,1110,6841            6851
3/19/24,16:35:33,018,5,test_nc1,53,blank1,0,0,553,0
3/19/24,16:35:33,018,5,test_nc1,54,numb_comp1,30,0,1962,951448201163            951448201173
3/19/24,16:35:33,018,5,test_nc1,55,blank4,0,0,906,0
3/19/24,16:35:33,018,5,test_nc1,56,numb_comp1,38,0,1020,8662            8662
3/19/24,16:35:33,018,5,test_nc1,57,blank10,0,0,1612,0
3/19/24,16:35:33,018,5,test_nc1,58,numb_comp1,38,0,1543,851            851
3/19/24,16:35:33,018,5,test_nc1,59,blank8,0,0,1376,0
3/19/24,16:35:33,018,5,test_nc1,60,numb_comp1,30,0,1639,63032049608            63020949608
3/19/24,16:35:33,018,5,test_nc1,61,blank3,0,0,788,0
3/19/24,16:35:33,018,5,test_nc1,62,numb_comp1,38,0,1363,7379311            7379311
3/19/24,16:35:33,018,5,test_nc1,63,blank7,0,0,1259,0
3/19/24,16:35:33,018,5,test_nc1,64,numb_comp1,30,0,1470,996663            996553
3/19/24,16:35:33,018,5,test_nc1,65,blank2,0,0,671,0
3/19/24,16:35:33,018,5,test_nc1,66,numb_comp1,30,0,1702,21153530            21153420
3/19/24,16:35:33,018,5,test_nc1,67,blank7,0,0,1259,0
3/19/24,16:35:33,018,5,test_nc1,68,numb_comp1,38,0,803,9013            9013
3/19/24,16:35:33,018,5,test_nc1,69,blank9,0,0,1494,0
3/19/24,16:35:33,018,5,test_nc1,70,numb_comp1,38,0,2469,92389075844            92389075844
3/19/24,16:35:33,018,5,test_nc1,71,blank2,0,0,671,0
3/19/24,16:35:33,018,5,test_nc1,72,numb_comp1,30,0,1163,6318            6418
3/19/24,16:35:33,018,5,test_nc1,73,blank6,0,0,1141,0
3/19/24,16:35:33,018,5,test_nc1,74,numb_comp1,38,0,1364,62056            62056
3/19/24,16:35:33,018,5,test_nc1,75,blank7,0,0,1259,0
3/19/24,16:35:33,018,5,test_nc1,76,numb_comp1,30,0,1304,168659794            168660904
3/19/24,16:35:33,018,5,test_nc1,77,blank5,0,0,1024,0
3/19/24,16:35:33,018,5,test_nc1,78,numb_comp1,38,0,1560,658697            658697
3/19/24,16:35:33,018,5,test_nc1,79,blank5,0,0,1024,0
3/19/24,16:35:33,018,5,test_nc1,80,numb_comp1,38,0,4509,2243565304            2243565304
3/19/24,16:35:33,018,6,test_nc2,1,blank_1st,0,0,1500,0
3/19/24,16:35:33,018,6,test_nc2,2,numb_comp2,30,0,2190,610459            611559
3/19/24,16:35:33,018,6,test_nc2,3,blank9,0,0,1494,0
3/19/24,16:35:33,018,6,test_nc2,4,numb_comp2,38,0,2117,75538            75538
3/19/24,16:35:33,018,6,test_nc2,5,blank2,0,0,671,0
3/19/24,16:35:33,018,6,test_nc2,6,numb_comp2,38,0,1209,2089            2089
3/19/24,16:35:33,018,6,test_nc2,7,blank2,0,0,671,0
3/19/24,16:35:33,018,6,test_nc2,8,numb_comp2,38,0,1253,155121            155121
3/19/24,16:35:33,018,6,test_nc2,9,blank6,0,0,1141,0
3/19/24,16:35:33,018,6,test_nc2,10,numb_comp2,38,0,1305,1981094            1981094
3/19/24,16:35:33,018,6,test_nc2,11,blank3,0,0,788,0
3/19/24,16:35:33,018,6,test_nc2,12,numb_comp2,30,0,1355,69960347            69960457
3/19/24,16:35:33,018,6,test_nc2,13,blank10,0,0,1612,0
3/19/24,16:35:33,018,6,test_nc2,14,numb_comp2,30,0,1728,29792117073            29792105973
3/19/24,16:35:33,018,6,test_nc2,15,blank5,0,0,1024,0
3/19/24,16:35:33,018,6,test_nc2,16,numb_comp2,38,0,1095,278233            278233
3/19/24,16:35:33,018,6,test_nc2,17,blank5,0,0,1024,0
3/19/24,16:35:33,018,6,test_nc2,18,numb_comp2,30,0,984,24068            24168
3/19/24,16:35:33,018,6,test_nc2,19,blank1,0,0,553,0
3/19/24,16:35:33,018,6,test_nc2,20,numb_comp2,38,0,2257,4215469941            4215469941
3/19/24,16:35:33,018,6,test_nc2,21,blank10,0,0,1612,0
3/19/24,16:35:33,018,6,test_nc2,22,numb_comp2,38,0,4832,897529167144            897529167144
3/19/24,16:35:33,018,6,test_nc2,23,blank8,0,0,1376,0
3/19/24,16:35:33,018,6,test_nc2,24,numb_comp2,38,0,3269,391317180            391317180
3/19/24,16:35:33,018,6,test_nc2,25,blank8,0,0,1376,0
3/19/24,16:35:33,018,6,test_nc2,26,numb_comp2,30,0,907,696            695
3/19/24,16:35:33,018,6,test_nc2,27,blank4,0,0,906,0
3/19/24,16:35:33,018,6,test_nc2,28,numb_comp2,30,0,2193,9450584455            9461684455
3/19/24,16:35:33,018,6,test_nc2,29,blank1,0,0,553,0
3/19/24,16:35:33,018,6,test_nc2,30,numb_comp2,30,0,2184,619165564            619164454
3/19/24,16:35:33,018,6,test_nc2,31,blank4,0,0,906,0
3/19/24,16:35:33,018,6,test_nc2,32,numb_comp2,38,0,3464,762115347            762115347
3/19/24,16:35:33,018,6,test_nc2,33,blank9,0,0,1494,0
3/19/24,16:35:33,018,6,test_nc2,34,numb_comp2,30,0,1377,8197739            8197849
3/19/24,16:35:33,018,6,test_nc2,35,blank4,0,0,906,0
3/19/24,16:35:33,018,6,test_nc2,36,numb_comp2,38,0,1267,92739            92739
3/19/24,16:35:33,018,6,test_nc2,37,blank6,0,0,1141,0
3/19/24,16:35:33,018,6,test_nc2,38,numb_comp2,30,0,1503,55824            55834
3/19/24,16:35:33,018,6,test_nc2,39,blank1,0,0,553,0
3/19/24,16:35:33,018,6,test_nc2,40,numb_comp2,38,0,2699,6168121946            6168121946
3/19/24,16:35:33,018,6,test_nc2,41,blank10,0,0,1612,0
3/19/24,16:35:33,018,6,test_nc2,42,numb_comp2,30,0,928,1048            1038
3/19/24,16:35:33,018,6,test_nc2,43,blank7,0,0,1259,0
3/19/24,16:35:33,018,6,test_nc2,44,numb_comp2,38,0,3599,16761296358            16761296358
3/19/24,16:35:33,018,6,test_nc2,45,blank7,0,0,1259,0
3/19/24,16:35:33,018,6,test_nc2,46,numb_comp2,30,0,2580,628605363062            628605473062
3/19/24,16:35:33,018,6,test_nc2,47,blank1,0,0,553,0
3/19/24,16:35:33,018,6,test_nc2,48,numb_comp2,30,0,2498,657973458            657962358
3/19/24,16:35:33,018,6,test_nc2,49,blank6,0,0,1141,0
3/19/24,16:35:33,018,6,test_nc2,50,numb_comp2,38,0,3147,74246568316            74246568316
3/19/24,16:35:33,018,6,test_nc2,51,blank9,0,0,1494,0
3/19/24,16:35:33,018,6,test_nc2,52,numb_comp2,38,0,1075,482            482
3/19/24,16:35:33,018,6,test_nc2,53,blank2,0,0,671,0
3/19/24,16:35:33,018,6,test_nc2,54,numb_comp2,30,0,2643,904679492412            904679492402
3/19/24,16:35:33,018,6,test_nc2,55,blank8,0,0,1376,0
3/19/24,16:35:33,018,6,test_nc2,56,numb_comp2,38,0,1901,18676209            18676209
3/19/24,16:35:33,018,6,test_nc2,57,blank5,0,0,1024,0
3/19/24,16:35:33,018,6,test_nc2,58,numb_comp2,30,0,1570,87791454            87792554
3/19/24,16:35:33,018,6,test_nc2,59,blank6,0,0,1141,0
3/19/24,16:35:33,018,6,test_nc2,60,numb_comp2,38,0,970,146            146
3/19/24,16:35:33,018,6,test_nc2,61,blank3,0,0,788,0
3/19/24,16:35:33,018,6,test_nc2,62,numb_comp2,30,0,1010,444008            444118
3/19/24,16:35:33,018,6,test_nc2,63,blank3,0,0,788,0
3/19/24,16:35:33,018,6,test_nc2,64,numb_comp2,38,0,3281,22308208            22308208
3/19/24,16:35:33,018,6,test_nc2,65,blank8,0,0,1376,0
3/19/24,16:35:33,018,6,test_nc2,66,numb_comp2,38,0,1552,4334416            4334416
3/19/24,16:35:33,018,6,test_nc2,67,blank4,0,0,906,0
3/19/24,16:35:33,018,6,test_nc2,68,numb_comp2,30,0,1834,7648791            7649891
3/19/24,16:35:33,018,6,test_nc2,69,blank7,0,0,1259,0
3/19/24,16:35:33,018,6,test_nc2,70,numb_comp2,30,0,794,802            801
3/19/24,16:35:33,018,6,test_nc2,71,blank7,0,0,1259,0
3/19/24,16:35:33,018,6,test_nc2,72,numb_comp2,30,0,1045,3980            3880
3/19/24,16:35:33,018,6,test_nc2,73,blank2,0,0,671,0
3/19/24,16:35:33,018,6,test_nc2,74,numb_comp2,30,0,3495,6875766673            6876876673
3/19/24,16:35:33,018,6,test_nc2,75,blank3,0,0,788,0
3/19/24,16:35:33,018,6,test_nc2,76,numb_comp2,38,0,1541,7321            7321
3/19/24,16:35:33,018,6,test_nc2,77,blank5,0,0,1024,0
3/19/24,16:35:33,018,6,test_nc2,78,numb_comp2,30,0,2395,58891903224            59002903224
3/19/24,16:35:33,018,6,test_nc2,79,blank10,0,0,1612,0
3/19/24,16:35:33,018,6,test_nc2,80,numb_comp2,38,0,4445,656607640290            656607640290
3/19/24,16:35:33,018,7,SMf1_Abr,1,SMf_Abr12,SMf_Pos3,0,6349,
3/19/24,16:35:33,018,7,SMf1_Abr,2,SMf_Abr2,SMf_Pos11,1,4419,
3/19/24,16:35:33,018,7,SMf1_Abr,3,SMf_Abr4,c11,1,8321,b
3/19/24,16:35:33,018,7,SMf1_Abr,4,SMf_Abr3,k14,1,2051,b
3/19/24,16:35:33,018,7,SMf1_Abr,5,SMf_Abr8,SMf_Pos4,0,2933,
3/19/24,16:35:33,018,7,SMf1_Abr,6,SMf_Abr6,d12,0,8363,b
3/19/24,16:35:33,018,7,SMf1_Abr,7,SMf_Abr1,b10,1,3675,b
3/19/24,16:35:33,018,7,SMf1_Abr,8,SMf_Abr10,SMf_Pos9,0,2161,
3/19/24,16:35:33,018,7,SMf1_Abr,9,SMf_Abr11,SMf_Pos12,1,2918,
3/19/24,16:35:33,018,7,SMf1_Abr,10,SMf_Abr9,x20,0,2541,b
3/19/24,16:35:33,018,7,SMf1_Abr,11,SMf_Abr7,t18,0,2706,b
3/19/24,16:35:33,018,7,SMf1_Abr,12,SMf_Abr5,SMf_Pos8,1,5201,
3/20/24,16:26:32,004,1,SMf1Practice,1,achtung,0,0,1700,Attention!
3/20/24,16:26:32,004,1,SMf1Practice,2,SMf1_P_T1,0,0,2800,a
3/20/24,16:26:32,004,1,SMf1Practice,3,SMf1_P_T2,0,0,2800,i
3/20/24,16:26:32,004,1,SMf1Practice,4,SMf1_P_T3,0,0,2800,u
3/20/24,16:26:32,004,2,SMf1Practice_Abr,1,SMf1_P_Abr1,SMf_Pos9,1,2163,
3/20/24,16:26:32,004,2,SMf1Practice_Abr,2,SMf1_P_Abr2,i12,1,2379,u
3/20/24,16:26:32,004,2,SMf1Practice_Abr,3,SMf1_P_Abr3,SMf_Pos12,1,2026,
3/20/24,16:26:32,004,3,SMf1,1,achtung,0,0,1700,Attention!
3/20/24,16:26:32,004,3,SMf1,2,SMf1_T1,0,0,2800,b
3/20/24,16:26:32,004,3,SMf1,3,SMf1_T2,0,0,2800,m
3/20/24,16:26:32,004,3,SMf1,4,SMf1_T3,0,0,2800,k
3/20/24,16:26:32,004,3,SMf1,5,SMf1_T4,0,0,2800,c
3/20/24,16:26:32,004,3,SMf1,6,SMf1_T5,0,0,2800,y
3/20/24,16:26:32,004,3,SMf1,7,SMf1_T6,0,0,2800,h
3/20/24,16:26:32,004,3,SMf1,8,SMf1_T7,0,0,2800,x
3/20/24,16:26:32,004,3,SMf1,9,SMf1_T8,0,0,2800,p
3/20/24,16:26:32,004,3,SMf1,10,SMf1_T9,0,0,2800,t
3/20/24,16:26:32,004,3,SMf1,11,SMf1_T10,0,0,2800,d
3/20/24,16:26:32,004,3,SMf1,12,SMf1_T11,0,0,2800,q
3/20/24,16:26:32,004,3,SMf1,13,SMf1_T12,0,0,2800,v
3/20/24,16:26:32,004,4,prac_nc,1,blank_1st,0,0,1500,0
3/20/24,16:26:32,004,4,prac_nc,2,pract_nc_correct,38,1,4697,659            659
3/20/24,16:26:32,004,4,prac_nc,3,blank7,0,0,1259,0
3/20/24,16:26:32,004,4,prac_nc,4,pract_nc_incorrect,30,1,3997,73845            73855
3/20/24,16:26:32,004,4,prac_nc,5,blank10,0,0,1612,0
3/20/24,16:26:32,004,4,prac_nc,6,pract_nc_incorrect,30,1,1736,658331            656331
3/20/24,16:26:32,004,4,prac_nc,7,blank8,0,0,1376,0
3/20/24,16:26:32,004,4,prac_nc,8,pract_nc_correct,38,1,917,438            438
3/20/24,16:26:32,004,4,prac_nc,9,blank6,0,0,1141,0
3/20/24,16:26:32,004,4,prac_nc,10,pract_nc_correct,38,1,1039,1624            1624
3/20/24,16:26:32,004,4,prac_nc,11,blank4,0,0,906,0
3/20/24,16:26:32,004,4,prac_nc,12,pract_nc_incorrect,30,1,1757,4821459            4814259
3/20/24,16:26:32,004,5,test_nc1,1,blank_1st,0,0,1500,0
3/20/24,16:26:32,004,5,test_nc1,2,numb_comp1,38,0,2482,84470088            84470088
3/20/24,16:26:32,004,5,test_nc1,3,blank6,0,0,1141,0
3/20/24,16:26:32,004,5,test_nc1,4,numb_comp1,30,0,1580,822813            821713
3/20/24,16:26:32,004,5,test_nc1,5,blank1,0,0,553,0
3/20/24,16:26:32,004,5,test_nc1,6,numb_comp1,38,0,1804,167390            167390
3/20/24,16:26:32,004,5,test_nc1,7,blank1,0,0,553,0
3/20/24,16:26:32,004,5,test_nc1,8,numb_comp1,38,0,3891,3373597617            3373597617
3/20/24,16:26:32,004,5,test_nc1,9,blank8,0,0,1376,0
3/20/24,16:26:32,004,5,test_nc1,10,numb_comp1,38,0,984,869            869
3/20/24,16:26:32,004,5,test_nc1,11,blank5,0,0,1024,0
3/20/24,16:26:32,004,5,test_nc1,12,numb_comp1,38,0,3628,946154158            946154158
3/20/24,16:26:32,004,5,test_nc1,13,blank5,0,0,1024,0
3/20/24,16:26:32,004,5,test_nc1,14,numb_comp1,30,0,2771,744597632877            744598742877
3/20/24,16:26:32,004,5,test_nc1,15,blank9,0,0,1494,0
3/20/24,16:26:32,004,5,test_nc1,16,numb_comp1,30,0,3121,7433615            7432515
3/20/24,16:26:32,004,5,test_nc1,17,blank10,0,0,1612,0
3/20/24,16:26:32,004,5,test_nc1,18,numb_comp1,30,0,1836,76672            76572
3/20/24,16:26:32,004,5,test_nc1,19,blank2,0,0,671,0
3/20/24,16:26:32,004,5,test_nc1,20,numb_comp1,38,0,5501,63038506            63038506
3/20/24,16:26:32,004,5,test_nc1,21,blank6,0,0,1141,0
3/20/24,16:26:32,004,5,test_nc1,22,numb_comp1,38,0,6503,338242381215            338242381215
3/20/24,16:26:32,004,5,test_nc1,23,blank2,0,0,671,0
3/20/24,16:26:32,004,5,test_nc1,24,numb_comp1,30,0,1987,17093622            17092522
3/20/24,16:26:32,004,5,test_nc1,25,blank1,0,0,553,0
3/20/24,16:26:32,004,5,test_nc1,26,numb_comp1,30,0,4218,89994            89984
3/20/24,16:26:32,004,5,test_nc1,27,blank3,0,0,788,0
3/20/24,16:26:32,004,5,test_nc1,28,numb_comp1,30,0,5074,8946221            8946111
3/20/24,16:26:32,004,5,test_nc1,29,blank9,0,0,1494,0
3/20/24,16:26:32,004,5,test_nc1,30,numb_comp1,30,0,4599,411205238            412315238
3/20/24,16:26:32,004,5,test_nc1,31,blank6,0,0,1141,0
3/20/24,16:26:32,004,5,test_nc1,32,numb_comp1,30,0,896,160            161
3/20/24,16:26:32,004,5,test_nc1,33,blank4,0,0,906,0
3/20/24,16:26:32,004,5,test_nc1,34,numb_comp1,38,0,4862,96680137317            96680137317
3/20/24,16:26:32,004,5,test_nc1,35,blank5,0,0,1024,0
3/20/24,16:26:32,004,5,test_nc1,36,numb_comp1,38,0,5265,100453190            100453190
3/20/24,16:26:32,004,5,test_nc1,37,blank8,0,0,1376,0
3/20/24,16:26:32,004,5,test_nc1,38,numb_comp1,30,0,2403,3633616033            3633627133
3/20/24,16:26:32,004,5,test_nc1,39,blank8,0,0,1376,0
3/20/24,16:26:32,004,5,test_nc1,40,numb_comp1,38,0,6222,674722052809            674722052809
3/20/24,16:26:32,004,5,test_nc1,41,blank2,0,0,671,0
3/20/24,16:26:32,004,5,test_nc1,42,numb_comp1,30,0,2478,4803720325            4802610325
3/20/24,16:26:32,004,5,test_nc1,43,blank1,0,0,553,0
3/20/24,16:26:32,004,5,test_nc1,44,numb_comp1,30,0,4369,98514271399            98403271399
3/20/24,16:26:32,004,5,test_nc1,45,blank7,0,0,1259,0
